taskID,trialIndex,trialStart,trialEnd,RT,choice,correct,initDirection,endDirection,presenceCP,coherence,viewingDuration,probCP,timeCP,randSeedBase,fixationOn,fixationStart,targetOn,dotsOn,dotsOff,choiceTime,targetOff,fixationOff,feedbackOn,numFrames,tocDotsOn,tocDotsOff
2,887,1211393.69020207,1211400.26102111,1.27455888688564,1,1,0,0,0,60,0.4,0.5,0.2,7792,0.375147769693285,NaN,3.54463929519989,3.7310799730476,4.1209104815498,5.39546936843544,NaN,NaN,NaN,28,3.684127733,4.100615864
2,300,1211400.27308178,1211405.36456642,0.920642064651474,0,1,180,180,0,60,0.5,0.5,0.2,1799,0.182536059757695,NaN,1.97914622933604,2.48762080562301,3.01251531019807,3.93315737484954,NaN,NaN,NaN,36,2.469662504,2.986031446
2,281,1211405.37565358,1211409.3701103,0.859870556974784,0,1,0,180,1,24,0.4,0.5,0.2,73,0.147362929070368,NaN,1.16431208164431,1.57109174272045,1.99482055613771,2.85469111311249,NaN,NaN,NaN,31,1.548836827,1.971030555
2,564,1211409.37864021,1211413.62375425,1.12453992757946,0,1,180,180,0,60,0.2,0.5,0.2,7113,0.127486040815711,NaN,1.22918095602654,1.7715538374614,1.97494366788305,3.09948359546252,NaN,NaN,NaN,17,1.747393225,1.953582374
2,112,1211413.63198212,1211418.11488864,0.875124919693917,0,0,180,0,1,12,0.5,0.5,0.2,1651,0.178955901879817,NaN,1.19590505422093,1.92471861373633,2.45014234236442,3.32526726205833,NaN,NaN,NaN,36,1.892972446,2.420738086
2,279,1211418.12131736,1211422.07929761,0.979441690258682,0,1,0,180,1,12,0.4,0.5,0.2,4120,0.130618397612125,NaN,1.06282178754918,1.4187539909035,1.82553365197964,2.80497534223832,NaN,NaN,NaN,29,1.392239649,1.802955147
2,892,1211422.08246736,1211427.01666764,1.13674513273872,0,0,180,0,1,12,0.5,0.5,0.2,5616,0.135575039777905,NaN,0.915236056782305,2.1355750397779,2.64293868187815,3.77968381461687,NaN,NaN,NaN,35,2.10609683,2.610702862
2,879,1211427.01963763,1211431.73714379,1.99993240251206,1,1,0,0,0,12,0.4,0.5,0.2,3316,0.129929549060762,NaN,0.807895650621504,1.14687870163471,1.57060751505196,3.57053991756402,NaN,NaN,NaN,29,1.126818131,1.543730535
2,351,1211431.74017643,1211436.52510253,1.09077191282995,1,1,0,0,0,12,0.5,0.5,0.2,6353,0.138204529182985,NaN,0.816170630976558,2.03650961397216,2.54324261005968,3.63401452288963,NaN,NaN,NaN,36,2.007809301,2.510828589
2,184,1211436.52803129,1211440.8453619,1.67318255803548,1,0,180,180,0,12,0.1,0.5,0.2,9185,0.128270576009527,NaN,0.874033287866041,1.39945701672696,1.50115193193778,3.17433448997326,NaN,NaN,NaN,11,1.369601215,1.476027468
2,205,1211440.84829561,1211444.09685345,0.743775077397004,1,1,0,0,0,0,0.3,0.5,0.2,648,0.129948940128088,NaN,0.790965889347717,1.02825402491726,1.35028792312369,2.09406300052069,NaN,NaN,NaN,24,1.01152003,1.325676849
2,378,1211444.09974811,1211448.07119732,0.999983385205269,1,0,180,180,0,24,0.2,0.5,0.2,2201,0.132686141412705,NaN,0.776753938058391,1.62421156512573,1.82652303646319,2.82650642166846,NaN,NaN,NaN,17,1.592295223,1.794193698
2,705,1211448.0739332,1211451.67281225,0.914099933346733,0,1,0,180,1,48,0.4,0.5,0.2,8640,0.140514936065301,NaN,0.835430190199986,1.10661663091742,1.53034544433467,2.4444453776814,NaN,NaN,NaN,30,1.081653928,1.505899197
2,624,1211451.67571584,1211455.22634847,1.06714728870429,0,1,180,180,0,60,0.2,0.5,0.2,7195,0.131954697659239,NaN,0.742124189157039,1.13195469765924,1.3353445280809,2.40249181678519,NaN,NaN,NaN,17,1.100205664,1.307374083
2,206,1211455.22909758,1211458.8816956,0.689187346724793,1,0,180,180,0,0,0.3,0.5,0.2,3041,0.137893784558401,NaN,0.7480632760562,1.51077514048666,1.81585988635197,2.50504723307677,NaN,NaN,NaN,24,1.485578062,1.790609578
2,307,1211458.88462652,1211462.58506109,0.749780236976221,1,1,0,0,0,36,0.1,0.5,0.2,4434,0.126431890763342,NaN,0.804397992556915,1.68575392477214,1.80387734924443,2.55365758622065,NaN,NaN,NaN,12,1.658061369,1.771442484
2,276,1211462.58793686,1211466.23662946,0.728786082938313,0,1,180,180,0,60,0.3,0.5,0.2,9829,0.134466542396694,NaN,0.863280101679265,1.45650044060312,1.76158518646844,2.49037126940675,NaN,NaN,NaN,24,1.427694402,1.737745677
2,825,1211466.23935914,1211470.02155709,0.692393854726106,0,0,0,0,0,48,0.4,0.5,0.2,8584,0.127112346701324,NaN,0.77118014334701,1.51694285520352,1.93853300716728,2.63092686189339,NaN,NaN,NaN,29,1.502462202,1.906197029
2,828,1211470.0242358,1211473.78037983,0.879050045507029,1,1,180,0,1,60,0.4,0.5,0.2,7402,0.13670653779991,NaN,0.763825181871653,1.28924891073257,1.72691810736433,2.60596815287136,NaN,NaN,NaN,32,1.258970767,1.690775994
2,632,1211473.783079,1211479.0664816,2.73552218289115,0,0,180,0,1,36,0.3,0.5,0.2,7545,0.12061797385104,NaN,0.747736617922783,1.06977051612921,1.39180441456847,4.12732659745961,NaN,NaN,NaN,24,1.042820807,1.36834056
2,679,1211479.0693043,1211482.40138593,0.766332635655999,1,1,0,0,0,36,0.2,0.5,0.2,8939,0.122527877567336,NaN,0.834392284275964,1.20727364020422,1.41066347062588,2.17699610628188,NaN,NaN,NaN,17,1.177991362,1.386527127
2,899,1211482.40420424,1211486.55744626,0.863014638191089,0,1,0,180,1,60,0.5,0.5,0.2,2751,0.126573959831148,NaN,0.821489213965833,1.60115023097023,2.13918927288614,3.00220391107723,NaN,NaN,NaN,38,1.570765788,2.105012869
2,411,1211486.56028197,1211490.99151612,0.693313596537337,1,1,0,0,0,12,0.5,0.5,0.2,2208,0.135691193630919,NaN,0.86450475291349,2.06789458356798,2.58475603861734,3.27806963515468,NaN,NaN,NaN,37,2.040522669,2.552284325
2,769,1211490.99434133,1211494.76078435,0.732501945225522,1,1,0,0,0,0,0.5,0.5,0.2,5093,0.133747357642278,NaN,1.03205244243145,1.37103549321182,1.87951006949879,2.61201201472431,NaN,NaN,NaN,36,1.34804146,1.854578075
2,690,1211494.76360812,1211499.23719124,1.02597566018812,0,1,180,180,0,24,0.3,0.5,0.2,8582,0.12716615293175,NaN,0.771233949577436,1.99157293257304,2.29665767843835,3.32263333862647,NaN,NaN,NaN,24,1.968324581,2.272677125
2,357,1211499.24012672,1211503.65806128,0.975486358860508,0,0,0,0,0,48,0.5,0.5,0.2,260,0.125250942306593,NaN,0.955759416799992,1.78626789152622,2.29474246781319,3.2702288266737,NaN,NaN,NaN,37,1.753850606,2.266421211
2,891,1211503.66084798,1211507.844268,1.15054895333014,1,0,0,180,1,12,0.5,0.5,0.2,135,0.128248076653108,NaN,0.992654856294394,1.36553621222265,1.89095994108357,3.04150889441371,NaN,NaN,NaN,38,1.340907117,1.865605947
2,554,1211507.84695565,1211511.31275082,0.963109240867198,0,1,180,180,0,0,0.2,0.5,0.2,6514,0.128566031111404,NaN,0.840430438052863,1.1285660311114,1.34812318044715,2.31123242131434,NaN,NaN,NaN,17,1.111429369,1.315707207
2,341,1211511.31539784,1211515.04884841,0.733187918085605,0,1,0,180,1,24,0.4,0.5,0.2,3760,0.133943228982389,NaN,0.947502550901845,1.42207882227376,1.84580763569102,2.57899555377662,NaN,NaN,NaN,30,1.391883879,1.817304551
2,785,1211515.05148443,1211519.17257242,0.784390662563965,1,1,0,0,0,24,0.1,0.5,0.2,1066,0.12667029723525,NaN,0.855483856517822,2.07582283951342,2.19446690729819,2.97885756986216,NaN,NaN,NaN,11,2.056431651,2.167983997
2,436,1211519.17532913,1211522.44043717,0.701429067645222,1,0,180,180,0,12,0.2,0.5,0.2,8791,0.121468293014914,NaN,0.833332699723542,1.18926490331069,1.40960388630629,2.11103295395151,NaN,NaN,NaN,17,1.168215683,1.380133867
2,50,1211522.44308922,1211526.74478065,0.835867614252493,0,1,180,180,0,0,0.5,0.5,0.2,9437,0.124851694097742,NaN,0.785868643317372,1.80281779565848,2.31129237194546,3.14715998619795,NaN,NaN,NaN,35,1.780631857,2.28248069
2,180,1211526.74746433,1211530.33081442,0.628019452095032,0,1,180,180,0,60,0.5,0.5,0.2,6710,0.125596758909523,NaN,1.00695269112475,1.27813913184218,1.79887110088021,2.42689055297524,NaN,NaN,NaN,35,1.251867729,1.764517019
2,714,1211530.33360385,1211534.00282245,0.578939956380054,1,1,180,0,1,24,0.5,0.5,0.2,9800,0.128169939853251,NaN,0.840034346561879,1.41630553291179,1.94172926177271,2.52066921815276,NaN,NaN,NaN,36,1.396009068,1.914804686
2,895,1211534.00568121,1211537.3224176,0.576947542838752,0,0,0,0,0,36,0.5,0.5,0.2,2642,0.134104651166126,NaN,0.778172447811812,1.08325719367713,1.5917317699641,2.16867931280285,NaN,NaN,NaN,35,1.05202558,1.562444924
2,693,1211537.32579311,1211541.0242015,1.0526511494536,1,1,0,0,0,48,0.3,0.5,0.2,2231,0.136026646243408,NaN,0.847891052952036,1.16992495115846,1.49195884959772,2.54460999905132,NaN,NaN,NaN,23,1.148419131,1.461471661
2,236,1211541.02683019,1211544.54752462,0.539433578960598,0,1,180,180,0,36,0.5,0.5,0.2,8487,0.1459876652807,NaN,0.722258851630613,1.31547919055447,1.82395376684144,2.36338734580204,NaN,NaN,NaN,36,1.28302747,1.797174163
2,707,1211544.55017836,1211548.68429089,0.574472704669461,1,1,0,0,0,60,0.4,0.5,0.2,5561,0.130522526567802,NaN,0.774590323213488,1.99492930620909,2.40170896728523,2.97618167195469,NaN,NaN,NaN,29,1.965824726,2.376976381
2,818,1211548.68696706,1211553.22097742,0.948904495453462,1,1,180,0,1,0,0.4,0.5,0.2,2370,0.129317670594901,NaN,0.79033461981453,2.01067360281013,2.43425263417885,3.38315712963231,NaN,NaN,NaN,30,1.988881366,2.41058939
2,823,1211553.22380464,1211557.25739304,0.836604214739054,0,0,0,0,0,36,0.4,0.5,0.2,5190,0.134702825220302,NaN,0.778770621865988,1.64317740150727,2.04995706258342,2.88656127732247,NaN,NaN,NaN,29,1.616622095,2.029403755
2,121,1211557.26005747,1211560.42486933,0.716424754587933,1,1,0,0,0,0,0.1,0.5,0.2,5008,0.132348846876994,NaN,0.912009863881394,1.20014545693994,1.30184037238359,2.01826512697153,NaN,NaN,NaN,11,1.167338959,1.276985327
2,136,1211560.42765596,1211564.26662013,0.779533409280702,1,0,180,180,0,12,0.2,0.5,0.2,1675,0.134242507163435,NaN,0.744411998661235,1.69356454093941,1.91114669828676,2.69068010756746,NaN,NaN,NaN,17,1.676428785,1.879172897
2,426,1211564.26930944,1211567.26696662,0.610243457136676,1,0,180,180,0,24,0.1,0.5,0.2,4539,0.137239478062838,NaN,0.764358122134581,1.1202903254889,1.23879428394139,1.84903774107806,NaN,NaN,NaN,12,1.090074904,1.206442197
2,717,1211567.26977387,1211571.46987534,0.827130369609222,1,1,0,0,0,48,0.5,0.5,0.2,3992,0.136684479890391,NaN,0.492616683244705,1.69600651366636,2.22143024252728,3.0485606121365,NaN,NaN,NaN,36,1.678265497,2.19271086
2,386,1211571.47266099,1211576.09122944,1.50209980108775,0,1,180,180,0,0,0.3,0.5,0.2,2908,0.137187203392386,NaN,0.747356694890186,1.6626109322533,1.96769567788579,3.46979547897354,NaN,NaN,NaN,23,1.635160608,1.943259614
2,159,1211576.09386687,1211579.82934247,0.763561283471063,0,0,0,0,0,12,0.4,0.5,0.2,8813,0.126150330761448,NaN,0.702421517344192,1.41428592405282,1.82085388782434,2.5844151712954,NaN,NaN,NaN,30,1.382696742,1.792271078
2,2,1211579.83203948,1211584.01993146,0.921752609312534,1,0,180,180,0,0,0.1,0.5,0.2,9504,0.133522867225111,NaN,0.794539816211909,1.9979296468664,2.11657371465117,3.0383263239637,NaN,NaN,NaN,12,1.979744603,2.090618577
2,340,1211584.02274401,1211587.76867823,0.738612859509885,0,0,180,0,1,12,0.4,0.5,0.2,1338,0.146626045461744,NaN,1.06188028259203,1.43486215011217,1.85299183125608,2.59160469076596,NaN,NaN,NaN,29,1.408405556,1.822424389
2,842,1211587.77146724,1211592.47398031,1.88331084628589,0,1,180,180,0,0,0.1,0.5,0.2,3412,0.138165763346478,NaN,0.799182712566108,1.54494542442262,1.66358949220739,3.54690033849329,NaN,NaN,NaN,11,1.528772946,1.640739322
2,900,1211592.4766704,1211595.82704635,0.60818621632643,1,1,180,0,1,60,0.5,0.5,0.2,236,0.127879278035834,NaN,0.788896227022633,1.06008266774006,1.58550639660098,2.19369261292741,NaN,NaN,NaN,37,1.03088685,1.556061173
2,7,1211595.82985275,1211599.33133726,1.02793621364981,0,0,0,0,0,36,0.1,0.5,0.2,1953,0.130099221598357,NaN,0.791116170817986,1.1978958316613,1.31653989944607,2.34447611309588,NaN,NaN,NaN,12,1.174497053,1.288786656
2,174,1211599.33412416,1211603.20033097,0.815216769231483,0,0,180,0,1,24,0.5,0.5,0.2,6690,0.134266349254176,NaN,0.795283298473805,1.37155448482372,1.89697821368463,2.71219498291612,NaN,NaN,NaN,37,1.349601335,1.871295293
2,807,1211603.20308236,1211606.71906435,0.659047491615638,1,0,0,180,1,12,0.3,0.5,0.2,4936,0.129718771437183,NaN,0.756837415508926,1.36700690700673,1.70424817083403,2.36329566244967,NaN,NaN,NaN,26,1.339089049,1.672080158
2,342,1211606.72189946,1211610.37094587,0.770629922393709,1,0,180,180,0,24,0.4,0.5,0.2,8207,0.134572196984664,NaN,0.880334908841178,1.30406372249126,1.72185677057132,2.49248669296503,NaN,NaN,NaN,31,1.272740442,1.689755279
2,469,1211610.3735847,1211613.71273576,0.686113482806832,0,1,0,180,1,0,0.5,0.5,0.2,1090,0.121027456130832,NaN,0.765095252776518,0.985434236004949,1.50665791728534,2.19277140009217,NaN,NaN,NaN,36,0.970557386,1.474476164
2,702,1211613.71540482,1211617.68037435,0.765349072637036,1,0,180,180,0,24,0.4,0.5,0.2,9321,0.130381675437093,NaN,0.791398624656722,1.63885625172406,2.04563591280021,2.81098498543724,NaN,NaN,NaN,29,1.617027375,2.018935427
2,840,1211617.68312621,1211621.41656679,0.702491627540439,1,1,180,0,1,60,0.5,0.5,0.2,9381,0.128757704049349,NaN,0.772825500695035,1.34909668704495,1.87674450478517,2.5792361323256,NaN,NaN,NaN,37,1.331210062,1.854143359
2,553,1211621.41925094,1211624.70747129,0.786203586030751,1,1,0,0,0,0,0.2,0.5,0.2,5195,0.12364937714301,NaN,0.835513784084469,1.1575476822909,1.36093751294538,2.14714109897614,NaN,NaN,NaN,17,1.132409627,1.337207296
2,306,1211624.7103451,1211628.1760237,1.1145006059669,1,0,180,180,0,24,0.1,0.5,0.2,8215,0.137664978392422,NaN,0.747834469890222,1.08681752067059,1.20546158845536,2.31996219442226,NaN,NaN,NaN,12,1.066935975,1.182121982
2,212,1211628.17886776,1211631.77886039,0.80724534438923,1,1,180,0,1,36,0.3,0.5,0.2,6846,0.143719287356362,NaN,0.770837931428105,1.31321081286296,1.65227144211531,2.45951678650454,NaN,NaN,NaN,26,1.283370477,1.61661484
2,458,1211631.78166561,1211635.08423046,0.722323468653485,1,0,180,180,0,0,0.4,0.5,0.2,2633,0.134218693478033,NaN,0.72743903240189,1.01557462569326,1.42235428676941,2.14467775542289,NaN,NaN,NaN,28,0.998570293,1.400100869
2,889,1211635.08705366,1211639.3379211,1.07220948720351,0,0,0,0,0,0,0.5,0.5,0.2,1373,0.133877380285412,NaN,0.744046871783212,1.52370788878761,2.03076232038438,3.10297180758789,NaN,NaN,NaN,36,1.492632117,1.999955131
2,319,1211639.34111662,1211643.07305001,1.33392288908362,1,1,0,0,0,36,0.2,0.5,0.2,7305,0.132668633013964,NaN,0.759787277085707,1.04792287014425,1.25131270079874,2.58523558988236,NaN,NaN,NaN,18,1.0164818,1.230125647
2,355,1211643.07577016,1211647.17646298,1.01552279433236,0,1,0,180,1,36,0.5,0.5,0.2,2596,0.126829618355259,NaN,0.720049957279116,1.41496521164663,1.93911163974553,2.95463443407789,NaN,NaN,NaN,37,1.38755176,1.915901801
2,601,1211647.17909545,1211650.54361686,0.908927770564333,1,1,0,0,0,0,0.1,0.5,0.2,2825,0.123887314228341,NaN,0.903548331232741,1.20863307686523,1.31032799230888,2.21925576287322,NaN,NaN,NaN,11,1.178631652,1.281844863
2,384,1211650.54628516,1211653.80057554,0.926859516184777,0,1,180,180,0,60,0.2,0.5,0.2,3541,0.130382597679272,NaN,0.689704631455243,0.960891072172672,1.1812300554011,2.10808957158588,NaN,NaN,NaN,17,0.942422733,1.150806231
2,313,1211653.80339337,1211658.3195088,2.11823892523535,0,0,0,0,0,0,0.2,0.5,0.2,1136,0.127506844466552,NaN,0.720727183390409,1.02581192925572,1.22870825463906,3.34694717987441,NaN,NaN,NaN,17,0.993983935,1.196464125
2,385,1211658.32219539,1211662.12429565,1.00192561070435,1,1,0,0,0,0,0.3,0.5,0.2,7540,0.133608534466475,NaN,0.743778026197106,1.32004921254702,1.64208311075345,2.64400872145779,NaN,NaN,NaN,24,1.298802003,1.615013361
2,733,1211662.12718578,1211665.3968411,0.781837434973568,1,1,0,0,0,0,0.2,0.5,0.2,6580,0.125289037590846,NaN,0.769356834236532,1.12528903759085,1.34533121949062,2.12716865446419,NaN,NaN,NaN,17,1.109104378,1.312869249
2,881,1211665.3996462,1211669.14965431,0.661610279697925,1,1,0,0,0,24,0.4,0.5,0.2,6958,0.123397260438651,NaN,0.750515904510394,1.51322776894085,1.93695658235811,2.59856686205603,NaN,NaN,NaN,29,1.495124444,1.910363502
2,132,1211669.15258389,1211672.83515162,1.0366647138726,1,0,180,180,0,60,0.1,0.5,0.2,5381,0.133169956039637,NaN,0.726390294963494,1.37045809160918,1.48910215939395,2.52576687326655,NaN,NaN,NaN,11,1.349228347,1.460059707
2,568,1211672.83787121,1211677.1046421,0.859487100737169,1,1,180,0,1,12,0.3,0.5,0.2,1371,0.12683339137584,NaN,0.753952035447583,1.92344356072135,2.26085468428209,3.12034178501926,NaN,NaN,NaN,24,1.899415854,2.228519035
2,1,1211677.10744273,1211679.99360695,0.705670011928305,1,1,0,0,0,0,0.1,0.5,0.2,7765,0.126933166291565,NaN,0.635407742578536,0.906594183063135,1.02523825084791,1.73090826277621,NaN,NaN,NaN,12,0.878982184,0.994748618
2,147,1211679.99629998,1211683.11239682,0.562529161572456,1,0,0,180,1,12,0.3,0.5,0.2,5734,0.136378517607227,NaN,0.695700551616028,1.06858190754429,1.40750575228594,1.9700349138584,NaN,NaN,NaN,24,1.042875865,1.375416233
2,318,1211683.11504883,1211686.1457001,0.696273535024375,1,0,180,180,0,24,0.2,0.5,0.2,3915,0.13621615874581,NaN,0.763334802817553,0.983673785813153,1.18706361646764,1.88333715149201,NaN,NaN,NaN,18,0.957881377,1.158828238
2,639,1211686.14832702,1211690.03697166,0.768139117397368,1,0,0,180,1,12,0.4,0.5,0.2,2083,0.136836281279102,NaN,0.747005772776902,1.54361594235525,1.97792529501021,2.74606441240758,NaN,NaN,NaN,30,1.52374551,1.945475279
2,91,1211690.03972075,1211693.23833434,0.598913297522813,1,1,0,0,0,36,0.3,0.5,0.2,9202,0.120430963346735,NaN,0.815346217481419,1.13738011568785,1.45575089007616,2.05466418759897,NaN,NaN,NaN,23,1.118052429,1.423650588
2,157,1211693.24134559,1211696.95686855,0.598880125209689,1,1,0,0,0,0,0.4,0.5,0.2,7077,0.135480854893103,NaN,0.813446956453845,1.55920966831036,1.9659893293865,2.56486945459619,NaN,NaN,NaN,30,1.527198419,1.941670646
2,565,1211696.95949273,1211701.56052242,1.45438359398395,1,0,0,180,1,0,0.3,0.5,0.2,6720,0.129198360955343,NaN,0.790215310174972,1.65462208981626,1.99234828911722,3.44673188310117,NaN,NaN,NaN,25,1.628664425,1.95993968
2,673,1211701.56316762,1211704.98592878,0.818590682698414,0,0,0,0,0,0,0.2,0.5,0.2,4284,0.134435718879104,NaN,0.72765605780296,1.25307978666387,1.45646961708553,2.27506029978395,NaN,NaN,NaN,18,1.228217427,1.433082692
2,102,1211704.9885766,1211708.90172696,0.899986332515255,1,1,180,0,1,24,0.4,0.5,0.2,9267,0.132754473946989,NaN,0.759873117785901,1.43783921957947,1.86156803322956,2.76155436574481,NaN,NaN,NaN,32,1.405488838,1.837320538
2,377,1211708.90445356,1211711.95460041,0.650912197772413,1,1,0,0,0,24,0.2,0.5,0.2,7754,0.132131104590371,NaN,0.725351443514228,1.03043618937954,1.25077517237514,1.90168737014756,NaN,NaN,NaN,18,1.008192718,1.224104431
2,508,1211711.95724294,1211715.09381977,0.583691988373175,1,1,180,0,1,12,0.3,0.5,0.2,4488,0.13023589970544,NaN,0.757354543777183,1.07938844198361,1.40142234042287,1.98511432879604,NaN,NaN,NaN,24,1.049447136,1.374060028
2,678,1211715.096673,1211718.39542907,0.684288667980582,1,0,180,180,0,24,0.2,0.5,0.2,1015,0.12642226042226,NaN,0.872184972278774,1.26201548078097,1.46540531120263,2.14969397918321,NaN,NaN,NaN,17,1.229924798,1.437157313
2,253,1211718.39813118,1211721.91224854,0.738950503757223,1,1,0,0,0,0,0.2,0.5,0.2,7604,0.113395587075502,NaN,1.18119219737127,1.40153118036687,1.62107674684376,2.36002725060098,NaN,NaN,NaN,18,1.382714005,1.588699803
2,203,1211721.91503199,1211725.63899813,0.627724466845393,1,1,0,0,0,60,0.2,0.5,0.2,9634,0.138009135145694,NaN,0.748178626643494,1.73122947406955,1.95156845706515,2.57929292391054,NaN,NaN,NaN,18,1.709219443,1.924805976
2,257,1211725.64180031,1211728.9888921,0.700523110106587,0,0,0,0,0,24,0.2,0.5,0.2,8891,0.123169312253594,NaN,0.801135413814336,1.27569546736777,1.49603445036337,2.19655756046996,NaN,NaN,NaN,18,1.250574816,1.467914679
2,877,1211728.99159996,1211732.40776693,0.749698205152526,1,0,0,180,1,0,0.4,0.5,0.2,2148,0.130291924113408,NaN,0.740461415611207,1.07944446639158,1.52097719488665,2.27067540003918,NaN,NaN,NaN,30,1.059390595,1.489156042
2,633,1211732.41042475,1211736.09387438,0.607225123792887,1,1,0,0,0,48,0.3,0.5,0.2,767,0.136087136575952,NaN,0.89879900100641,1.62761256052181,1.9326973061543,2.53992242994718,NaN,NaN,NaN,23,1.602053718,1.904885578
2,898,1211736.09669145,1211739.56602012,0.597035761689767,0,1,180,180,0,48,0.5,0.5,0.2,9918,0.127785430056974,NaN,0.805751531850547,1.21253119269386,1.72061791922897,2.31765368091874,NaN,NaN,NaN,36,1.180959181,1.688034756
2,817,1211739.5688055,1211743.75390925,0.746708958875388,1,1,0,0,0,0,0.4,0.5,0.2,2380,0.130195135017857,NaN,0.791212084237486,1.87595784687437,2.28286942327395,3.02957838214934,NaN,NaN,NaN,30,1.847384968,2.252796356
2,185,1211743.75666233,1211747.22202486,1.03270429675467,1,1,0,0,0,24,0.1,0.5,0.2,7819,0.12832799856551,NaN,0.924938167911023,1.16222630348057,1.28087037126534,2.31357466802001,NaN,NaN,NaN,12,1.139730516,1.250883709
2,711,1211747.22472293,1211751.07398914,0.922690368723124,0,0,0,0,0,12,0.5,0.5,0.2,4780,0.134843363659456,NaN,0.778911160305142,1.27043658401817,1.77891116030514,2.70160152902827,NaN,NaN,NaN,36,1.239427882,1.752591469
2,772,1211751.07678578,1211754.46391295,0.594345313962549,1,1,180,0,1,12,0.5,0.5,0.2,4198,0.129934227326885,NaN,0.774002023972571,1.096035922179,1.63904463895597,2.23338995291851,NaN,NaN,NaN,37,1.07286912,1.603596644
2,450,1211754.46670632,1211758.78431556,0.747361606452614,1,0,180,180,0,24,0.3,0.5,0.2,1182,0.130058618728071,NaN,0.892770483158529,2.11310946615413,2.41609632107429,3.16345792752691,NaN,NaN,NaN,24,2.081042242,2.383954308
2,153,1211758.78697082,1211763.42137738,1.53061633510515,1,0,0,180,1,48,0.3,0.5,0.2,2209,0.130364478565753,NaN,1.28290685149841,1.62188990227878,1.96087295305915,3.4914892881643,NaN,NaN,NaN,25,1.60403242,1.933557272
2,869,1211763.42417249,1211769.56020401,NaN,NaN,NaN,0,180,1,24,0.3,0.5,0.2,5028,0.137230802327394,NaN,NaN,NaN,NaN,NaN,NaN,NaN,NaN,1,NaN,NaN
2,183,1211769.56600499,1211775.71591311,NaN,NaN,NaN,0,0,0,12,0.1,0.5,0.2,543,0.130991128040478,NaN,NaN,NaN,NaN,NaN,NaN,NaN,NaN,1,NaN,NaN
2,130,1211775.71882014,1211781.87224306,NaN,NaN,NaN,180,180,0,48,0.1,0.5,0.2,7619,0.130645777331665,NaN,NaN,NaN,NaN,NaN,NaN,NaN,NaN,1,NaN,NaN
2,108,1211781.87527241,1211788.0090092,NaN,NaN,NaN,180,180,0,60,0.4,0.5,0.2,3394,0.126739178551361,NaN,NaN,NaN,NaN,NaN,NaN,NaN,NaN,1,NaN,NaN
2,841,1211788.01195163,1211794.15023579,NaN,NaN,NaN,0,0,0,0,0.1,0.5,0.2,8863,0.125653353985399,NaN,NaN,NaN,NaN,NaN,NaN,NaN,NaN,1,NaN,NaN
2,719,1211794.15344173,1211800.29043415,NaN,NaN,NaN,0,0,0,60,0.5,0.5,0.2,1156,0.136705853743479,NaN,NaN,NaN,NaN,NaN,NaN,NaN,NaN,1,NaN,NaN
2,427,1211800.29323218,1211806.44269836,NaN,NaN,NaN,0,0,0,36,0.1,0.5,0.2,4468,0.132508277893066,NaN,NaN,NaN,NaN,NaN,NaN,NaN,NaN,1,NaN,NaN
2,694,1211806.44700904,1211809.95051808,0.677818651776761,1,1,180,0,1,48,0.3,0.5,0.2,5105,0.131274158600718,NaN,1.02957924338989,1.35161314159632,1.67364704003558,2.35146569181234,NaN,NaN,NaN,24,1.319869962,1.645660621
2,588,1211809.95319013,1211814.38765125,0.609498678008094,0,1,180,180,0,60,0.4,0.5,0.2,6126,0.133566203527153,NaN,1.03187128831632,2.25221027131192,2.67547404719517,3.28497272520326,NaN,NaN,NaN,31,2.227087242,2.643437828
2,675,1211814.39034343,1211818.40803169,0.633559296606109,1,1,0,0,0,12,0.2,0.5,0.2,2263,0.136627154657617,NaN,1.01798308687285,2.03493223921396,2.23832206986845,2.87188136647455,NaN,NaN,NaN,17,2.002861463,2.209376761
2,186,1211818.41085077,1211822.22684552,1.12681899312884,1,0,180,180,0,24,0.1,0.5,0.2,8813,0.133069128496572,NaN,1.08222167077474,1.42120472155511,1.54069150215946,2.6675104952883,NaN,NaN,NaN,11,1.398936283,1.508607101
2,533,1211822.22964133,1211826.36612732,1.12718775682151,1,0,0,180,1,24,0.5,0.5,0.2,947,0.128679956309497,NaN,0.908340973081067,1.33206978673115,1.85749351559207,2.98468127241358,NaN,NaN,NaN,37,1.30260598,1.826346316
2,226,1211826.36897725,1211830.30260049,0.438721566926688,0,1,180,180,0,48,0.4,0.5,0.2,2373,0.124937288695946,NaN,0.972394915763289,1.92253589816391,2.34262527502142,2.78134684194811,NaN,NaN,NaN,30,1.898773251,2.307565577
2,197,1211830.30529353,1211834.75716839,0.902037345338613,0,0,0,0,0,24,0.2,0.5,0.2,9091,0.135122622828931,NaN,0.96563109732233,2.18597008055076,2.40679116873071,3.30882851406932,NaN,NaN,NaN,18,2.163222492,2.374541577
2,748,1211834.75998584,1211839.4112963,1.28003237117082,1,0,180,180,0,12,0.3,0.5,0.2,7482,0.121590110706165,NaN,0.850403669988737,1.91820028005168,2.22228411026299,3.50231648143381,NaN,NaN,NaN,24,1.887681483,2.189844659
2,182,1211839.4139538,1211842.42710656,0.533357382984832,1,0,180,180,0,0,0.1,0.5,0.2,2536,0.127597422804683,NaN,0.94115674495697,1.2123431856744,1.33098725345917,1.864344636444,NaN,NaN,NaN,11,1.195688313,1.305788009
2,416,1211842.429888,1211846.01772644,0.778283062623814,1,1,180,0,1,36,0.5,0.5,0.2,4308,0.128661948023364,NaN,0.823577202390879,1.12866194802336,1.65408567688428,2.43236873950809,NaN,NaN,NaN,38,1.096064523,1.626006893
2,64,1211846.02035842,1211849.83820945,0.575853071175516,1,0,180,180,0,12,0.1,0.5,0.2,1752,0.131053093355149,NaN,0.775120890000835,1.99545987299643,2.09814083739184,2.67399390856735,NaN,NaN,NaN,12,1.967584628,2.072142004
2,393,1211849.84112008,1211853.4722459,0.775985766900703,0,1,0,180,1,48,0.3,0.5,0.2,649,0.14178549265489,NaN,0.938395662233233,1.36212447588332,1.70110752666369,2.47709329356439,NaN,NaN,NaN,26,1.341845561,1.67085577
2,615,1211853.47493054,1211856.32971971,0.427623656578362,1,1,0,0,0,12,0.2,0.5,0.2,5030,0.135082717053592,NaN,0.711353903636336,1.06728610699065,1.28762508998625,1.71524874656461,NaN,NaN,NaN,18,1.048730995,1.256399827
2,527,1211856.3325306,1211859.78182116,0.471996737876907,0,1,0,180,1,60,0.4,0.5,0.2,448,0.124949946533889,NaN,0.735119438264519,1.39613638725132,1.83386729494669,2.30586403282359,NaN,NaN,NaN,32,1.369934245,1.801636251
2,440,1211859.78473817,1211863.98301608,0.86736834095791,1,0,180,180,0,36,0.2,0.5,0.2,6793,0.127398769138381,NaN,0.754517413210124,1.97485639620572,2.17824622662738,3.04561456758529,NaN,NaN,NaN,18,1.947364822,2.152402144
2,104,1211863.98571016,1211868.03832723,1.17505039228126,0,1,180,180,0,36,0.4,0.5,0.2,9482,0.129802075913176,NaN,0.790819025132805,1.3165271426551,1.72546710213646,2.90051749441773,NaN,NaN,NaN,30,1.289996231,1.704594356
2,477,1211868.04098886,1211872.17387977,0.521513700252399,0,1,0,180,1,48,0.5,0.5,0.2,3014,0.128782178973779,NaN,0.738951670471579,1.95929065346718,2.46776522975415,2.98927893000655,NaN,NaN,NaN,36,1.930986348,2.438132683
2,716,1211872.17652821,1211875.71374082,0.670377307571471,0,0,180,0,1,36,0.5,0.5,0.2,9381,0.13005934166722,NaN,0.723279680591077,1.18115991191007,1.71930888993666,2.38968619750813,NaN,NaN,NaN,38,1.155554759,1.687338892
2,531,1211875.71640027,1211879.70019499,0.688267648685724,1,0,0,180,1,12,0.5,0.5,0.2,2801,0.14553486998193,NaN,0.806551819201559,1.62011114112101,2.14553486998193,2.83380251866765,NaN,NaN,NaN,37,1.597269439,2.117573517
2,888,1211879.70292317,1211883.85382277,0.552239227574319,0,1,180,180,0,60,0.4,0.5,0.2,9605,0.125157842645422,NaN,0.803123944438994,2.02346292743459,2.44719174108468,2.999430968659,NaN,NaN,NaN,31,2.005435596,2.417594763
2,573,1211883.8566649,1211887.08976918,0.630740551743656,1,1,0,0,0,48,0.3,0.5,0.2,6732,0.140909445937723,NaN,0.751078937435523,1.15785859851167,1.46294334414415,2.09368389588781,NaN,NaN,NaN,23,1.130356556,1.433397937
2,125,1211887.09257505,1211890.94573242,0.640272916294634,1,1,0,0,0,24,0.1,0.5,0.2,2466,0.125338684301823,NaN,0.718559023458511,1.93889800645411,2.05754207423888,2.69781499053352,NaN,NaN,NaN,11,1.919629347,2.033928017
2,815,1211890.94848444,1211894.96473166,0.468851661542431,1,1,0,0,0,60,0.3,0.5,0.2,9028,0.1338365834672,NaN,0.879599295323715,2.09993827855214,2.40502302418463,2.87387468572706,NaN,NaN,NaN,24,2.071643556,2.381383033
2,463,1211894.96757178,1211898.03331782,0.389270811108872,1,1,0,0,0,36,0.4,0.5,0.2,9788,0.131696309428662,NaN,0.809662411222234,1.11474715685472,1.52152681793086,1.91079762903973,NaN,NaN,NaN,29,1.092601083,1.497943855
2,52,1211898.03612268,1211902.25249516,0.507495656143874,1,1,180,0,1,12,0.5,0.5,0.2,3867,0.130182666238397,NaN,0.808148767799139,2.02848775102757,2.56672188942321,3.07421754556708,NaN,NaN,NaN,36,2.008029517,2.534168536
2,231,1211902.25531626,1211906.1765596,0.928844377864152,0,0,0,0,0,12,0.5,0.5,0.2,38,0.127187421545386,NaN,0.737356913043186,1.33057725196704,1.83807903202251,2.76692340988666,NaN,NaN,NaN,35,1.300355398,1.816903621
2,854,1211906.17938416,1211910.6467726,1.13757809670642,0,1,180,180,0,0,0.2,0.5,0.2,9361,0.13435071054846,NaN,0.761469354620203,1.9818083376158,2.18519816803746,3.32277626474388,NaN,NaN,NaN,17,1.952724867,2.162788472
2,513,1211910.64945936,1211914.34985735,0.711611408973113,1,0,0,180,1,48,0.3,0.5,0.2,7320,0.138844644650817,NaN,0.76596328872256,1.51172600057907,1.84528083400801,2.55689224298112,NaN,NaN,NaN,24,1.492867162,1.812836383
2,392,1211914.35268324,1211917.78516411,0.550318674184382,1,1,180,0,1,36,0.3,0.5,0.2,8955,0.12511534569785,NaN,0.887827210128307,1.41325093898922,1.73528483719565,2.28560351138003,NaN,NaN,NaN,25,1.394426935,1.71271354
2,18,1211917.78797686,1211920.90774841,0.708358503179625,1,0,180,180,0,24,0.2,0.5,0.2,1162,0.130355363013223,NaN,0.791372312232852,1.04560960037634,1.26200687908567,1.9703653822653,NaN,NaN,NaN,17,1.028494817,1.229538763
2,451,1211920.91044796,1211924.0250372,0.608849914046004,1,1,0,0,0,36,0.3,0.5,0.2,795,0.122548710322008,NaN,0.732718201819807,1.03780294768512,1.35894158692099,1.967791500967,NaN,NaN,NaN,23,1.02067648,1.326611087
2,264,1211924.02784702,1211927.54376856,0.477235789643601,0,1,180,180,0,60,0.2,0.5,0.2,3601,0.139309471473098,NaN,0.732529810396954,1.68168235267513,1.88507218332961,2.36230797297321,NaN,NaN,NaN,17,1.651402551,1.862204848
2,819,1211927.54646613,1211931.88589318,0.758474824251607,1,0,0,180,1,12,0.4,0.5,0.2,5288,0.128228451125324,NaN,0.789245400112122,2.00958438334055,2.42922412208281,3.18769894633442,NaN,NaN,NaN,31,1.977705119,2.39696361
2,31,1211931.88862625,1211935.40408278,0.541554654715583,1,0,0,180,1,36,0.3,0.5,0.2,8749,0.137944106012583,NaN,0.90065597044304,1.47692715702578,1.81591020780616,2.35746486252174,NaN,NaN,NaN,25,1.459203221,1.791259898
2,48,1211935.40673743,1211939.19024995,0.573148504830897,1,1,180,0,1,60,0.4,0.5,0.2,646,0.128308175830171,NaN,0.772375972475857,1.63678275211714,2.05848162411712,2.63163012894802,NaN,NaN,NaN,31,1.605034439,2.026068117
2,82,1211939.19290713,1211942.49130289,0.624450599076226,0,1,180,180,0,48,0.2,0.5,0.2,2054,0.136717754648998,NaN,0.984175381716341,1.3062092801556,1.5249143501278,2.14936494920403,NaN,NaN,NaN,17,1.288858776,1.492830988
2,335,1211942.49393727,1211945.7647206,0.552436998812482,0,1,0,180,1,60,0.3,0.5,0.2,6152,0.122137087164447,NaN,0.800103188725188,1.22383200237527,1.55992001923732,2.11235701804981,NaN,NaN,NaN,26,1.196376286,1.527846316
2,225,1211945.76752634,1211948.99981163,0.597915317397565,0,1,0,180,1,48,0.4,0.5,0.2,7126,0.133821680676192,NaN,0.811787782469764,1.04907591803931,1.4888585365843,2.08677385398187,NaN,NaN,NaN,30,1.032038652,1.456675905
2,81,1211949.00251745,1211952.15310523,0.522348267724738,1,1,0,0,0,48,0.2,0.5,0.2,5361,0.135243341326714,NaN,0.813209442887455,1.25388740911148,1.4733591361437,1.99570740386844,NaN,NaN,NaN,18,1.226495874,1.44090327
2,859,1211952.15576059,1211955.17333451,0.571382148191333,1,1,0,0,0,36,0.2,0.5,0.2,2634,0.133674819022417,NaN,0.743844310520217,1.09977651410736,1.30316634452902,1.87454849272035,NaN,NaN,NaN,17,1.071542383,1.273586317
2,34,1211955.17599027,1211959.29278898,0.683023803634569,0,1,180,180,0,48,0.3,0.5,0.2,1043,0.129930093418807,NaN,0.740099584916607,1.96108121075667,2.2831151089631,2.96613891259767,NaN,NaN,NaN,24,1.939945498,2.256739977
2,402,1211959.29544113,1211963.74665266,0.43818866298534,0,1,180,180,0,24,0.4,0.5,0.2,100,0.130303637357429,NaN,2.21504939999431,2.45233753556386,2.85679928562604,3.29498794861138,NaN,NaN,NaN,30,2.420699146,2.824424521
2,890,1211963.74944904,1211967.06945379,0.446533168898895,1,0,180,180,0,0,0.5,0.5,0.2,2963,0.131605848902836,NaN,0.775673645548522,1.19940245896578,1.72220620769076,2.16873937658966,NaN,NaN,NaN,36,1.181422252,1.689947768
2,345,1211967.07226421,1211970.4206989,0.462554493453354,1,1,0,0,0,48,0.4,0.5,0.2,992,0.129965557716787,NaN,0.75708420178853,1.3164062355645,1.73552463389933,2.19807912735268,NaN,NaN,NaN,30,1.30033281,1.703189053
2,295,1211970.42351545,1211973.77101894,0.470389794791117,0,1,0,180,1,36,0.5,0.5,0.2,8112,0.130079335300252,NaN,0.774147131945938,1.18092679302208,1.72029168461449,2.19068147940561,NaN,NaN,NaN,37,1.164238964,1.68793153
2,616,1211973.77371991,1211977.01004114,0.490989056415856,1,0,180,180,0,12,0.2,0.5,0.2,8425,0.132781688123941,NaN,0.759900332195684,1.37006982369348,1.5895244916901,2.08051354810596,NaN,NaN,NaN,18,1.3492283,1.557097623
2,63,1211977.01280862,1211980.1110069,0.831906713545322,1,1,0,0,0,12,0.1,0.5,0.2,2854,0.130559666315094,NaN,0.77462746296078,0.994988062651828,1.1136321304366,1.94553884398192,NaN,NaN,NaN,13,0.970437915,1.086935756
2,246,1211980.11379316,1211983.16507002,0.718978724908084,1,0,180,180,0,24,0.1,0.5,0.2,1373,0.147711230441928,NaN,0.740931569365785,1.06296546757221,1.18160953558981,1.9005882604979,NaN,NaN,NaN,12,1.043924097,1.155235232
2,514,1211983.1677891,1211987.63428045,1.0384449812118,0,1,180,180,0,48,0.3,0.5,0.2,5911,0.127613730030134,NaN,0.754732373869047,1.95812220452353,2.28015610272996,3.31860108394176,NaN,NaN,NaN,25,1.94018291,2.254761652
2,569,1211987.63709224,1211991.67492717,0.637675066711381,0,0,0,0,0,24,0.3,0.5,0.2,5782,0.132885196246207,NaN,0.726105535170063,1.94644451816566,2.25152926403098,2.88920433074236,NaN,NaN,NaN,24,1.918874125,2.222451291
2,129,1211991.67768925,1211994.57622453,0.507735510589555,0,0,0,0,0,48,0.1,0.5,0.2,2043,0.126186915440485,NaN,0.770254712086171,1.12618691544048,1.24483098322526,1.75256649381481,NaN,NaN,NaN,12,1.106808601,1.217492924
2,467,1211994.5788515,1211997.87817145,0.676281047752127,0,1,0,180,1,60,0.4,0.5,0.2,9050,0.12329182587564,NaN,0.767359622521326,1.0554952158127,1.47922402922995,2.15550507698208,NaN,NaN,NaN,31,1.029720359,1.454256682
2,25,1211997.88080322,1212000.9668339,0.662536773830652,1,1,0,0,0,0,0.3,0.5,0.2,9703,0.143412838689983,NaN,0.719684025039896,0.973921313183382,1.2790060590487,1.94154283287935,NaN,NaN,NaN,24,0.946443596,1.252893497
2,607,1212000.96947948,1212004.60291134,1.06531892716885,0,0,0,0,0,36,0.1,0.5,0.2,8029,0.122416640864685,NaN,0.715636979788542,1.30885731894523,1.42750138673,2.49282031389885,NaN,NaN,NaN,12,1.291391823,1.400098938
2,584,1212004.6057287,1212007.9375727,0.61599512794055,1,1,180,0,1,36,0.4,0.5,0.2,9141,0.130474339937791,NaN,0.740643831435591,1.13047433993779,1.56863875570707,2.18463388364762,NaN,NaN,NaN,30,1.114153922,1.533847398
2,664,1212007.94037586,1212011.41091632,0.49464998790063,1,0,180,180,0,12,0.1,0.5,0.2,3777,0.132315444992855,NaN,0.725535783916712,1.72553578391671,1.82723069912754,2.32188068702817,NaN,NaN,NaN,11,1.698311963,1.802281827
2,720,1212011.41382027,1212014.72902586,0.467772826552391,1,1,180,0,1,60,0.5,0.5,0.2,1925,0.133445539046079,NaN,0.743615030543879,1.16734384419397,1.69276757305488,2.16054039960727,NaN,NaN,NaN,37,1.134937407,1.664902577
2,487,1212014.73168206,1212018.44752809,0.493435017997399,1,1,0,0,0,36,0.1,0.5,0.2,5108,0.120650228345767,NaN,0.730819719843566,1.95115870283917,2.06912534032017,2.56256035831757,NaN,NaN,NaN,11,1.920443162,2.033333243
2,228,1212018.45017539,1212021.78702865,0.543059471994638,1,1,180,0,1,60,0.4,0.5,0.2,1963,0.130062939133495,NaN,0.774130735779181,1.2155223521404,1.63710942864418,2.18016890063882,NaN,NaN,NaN,30,1.190152648,1.61769871
2,339,1212021.78972258,1212025.40624383,1.05949685606174,1,1,0,0,0,12,0.4,0.5,0.2,7749,0.128070835024118,NaN,0.738240326521918,0.992477614665404,1.41288288403302,2.47237974009477,NaN,NaN,NaN,30,0.975095935,1.380518515
2,24,1212025.40901477,1212028.32381098,0.593685114057735,0,1,180,180,0,60,0.2,0.5,0.2,5162,0.132574211340398,NaN,0.725794550264254,0.962616606615484,1.1795516887214,1.77323680277914,NaN,NaN,NaN,17,0.942789954,1.147511229
2,397,1212028.32647978,1212032.31546543,1.07805880415253,1,0,0,180,1,0,0.4,0.5,0.2,8879,0.126458231825382,NaN,0.719678570749238,1.32984806224704,1.75378364347853,2.83184244763106,NaN,NaN,NaN,30,1.304785702,1.732741748
2,32,1212032.31826801,1212035.699975,0.767076604068279,1,0,180,180,0,36,0.3,0.5,0.2,9947,0.134911572095007,NaN,0.76203021616675,1.15186072443612,1.45694547030143,2.22402207436971,NaN,NaN,NaN,23,1.12018983,1.427418026
2,636,1212035.70273992,1212038.73401063,0.543020963435993,0,1,180,180,0,60,0.3,0.5,0.2,9783,0.140268820570782,NaN,0.733489159727469,1.02162475278601,1.34459964511916,1.88762060855515,NaN,NaN,NaN,23,1.003856464,1.311944987
2,572,1212038.73664387,1212042.50857191,0.531379255233333,1,0,180,180,0,36,0.3,0.5,0.2,5808,0.124253594782203,NaN,0.683575628791004,1.78527054400183,2.09035528986715,2.62173454510048,NaN,NaN,NaN,23,1.759831698,2.064168658
2,49,1212042.51126762,1212046.07717905,0.650561029324308,1,0,0,180,1,0,0.5,0.5,0.2,7304,0.12929348833859,NaN,0.756412132410333,1.23098840354942,1.75641213241033,2.40697316173464,NaN,NaN,NaN,35,1.208792159,1.726267613
2,123,1212046.0799058,1212049.36236733,0.540487853810191,1,1,0,0,0,12,0.1,0.5,0.2,5211,0.136923227459192,NaN,0.865736786741763,1.47590627823956,1.593860181747,2.1343480355572,NaN,NaN,NaN,11,1.457116227,1.560471445
2,28,1212049.36510523,1212052.99535347,0.724403450964019,1,0,180,180,0,12,0.3,0.5,0.2,9772,0.139172898838297,NaN,0.783240695483983,1.44425764470361,1.74860277399421,2.47300622495823,NaN,NaN,NaN,24,1.422000681,1.728231933
2,39,1212052.99803936,1212057.63979826,1.08194319601171,0,1,0,180,1,12,0.4,0.5,0.2,9875,0.132596587296575,NaN,0.759715231368318,1.97998443315737,2.41438991716132,3.49633311317302,NaN,NaN,NaN,31,1.958010208,2.381992198
2,299,1212057.64265636,1212061.05774896,0.540542131755501,0,1,0,180,1,60,0.5,0.5,0.2,7528,0.125725835794583,NaN,0.735895327292383,1.19352244585752,1.71894617471844,2.25948830647394,NaN,NaN,NaN,37,1.171005362,1.690640911
2,563,1212061.06055257,1212064.42648978,0.654538851464167,1,1,0,0,0,60,0.2,0.5,0.2,1501,0.131558897672221,NaN,0.809524999232963,1.35189788066782,1.55528771108948,2.20982656255364,NaN,NaN,NaN,16,1.32603482,1.527331442
2,700,1212064.42926764,1212067.79747407,0.491725562373176,0,1,180,180,0,12,0.4,0.5,0.2,1776,0.135724844643846,NaN,0.728945183567703,1.30521636991762,1.7254425866995,2.21716814907268,NaN,NaN,NaN,30,1.28558448,1.693199977
2,510,1212067.80017973,1212071.3849597,0.439368837978691,1,0,180,180,0,24,0.3,0.5,0.2,8537,0.134191086748615,NaN,0.77825888316147,1.69351312052459,1.9985978663899,2.43796670436859,NaN,NaN,NaN,23,1.669775273,1.977923074
2,273,1212071.38776518,1212074.65299851,0.60971483704634,1,1,0,0,0,48,0.3,0.5,0.2,5104,0.139825149439275,NaN,0.766943793511018,1.20762175950222,1.51270650536753,2.12242134241387,NaN,NaN,NaN,23,1.183065105,1.49175093
2,547,1212074.65580699,1212078.09215814,0.981957152951509,0,0,0,0,0,36,0.1,0.5,0.2,25,0.142970711691305,NaN,0.736191050615162,1.21076732175425,1.31246223696508,2.29441938991658,NaN,NaN,NaN,12,1.179025337,1.291511745
2,429,1212078.09489362,1212080.99478725,0.717545644380152,1,1,0,0,0,48,0.1,0.5,0.2,3233,0.127612720243633,NaN,0.686934754252434,0.924222889821976,1.0259178050328,1.74346344941296,NaN,NaN,NaN,12,0.899912853,1.004896229
2,669,1212080.99744128,1212084.01135737,0.622914846520871,1,1,0,0,0,48,0.1,0.5,0.2,8083,0.140307523775846,NaN,0.733527862699702,1.1233583712019,1.24200243898667,1.86491728550754,NaN,NaN,NaN,12,1.106931963,1.221607289
2,108,1212084.01415202,1212087.13201721,0.561656689969823,1,1,180,0,1,60,0.4,0.5,0.2,6502,0.140730859478936,NaN,0.717002045828849,0.971239333972335,1.40653283311985,1.96818952308968,NaN,NaN,NaN,30,0.948108371,1.374038256
2,360,1212087.1348011,1212091.20267811,0.480274258414283,0,1,180,180,0,60,0.5,0.5,0.2,1893,0.133341607404873,NaN,0.709612793754786,1.92995177698322,2.43922073720023,2.91949499561451,NaN,NaN,NaN,36,1.901264638,2.406916189
2,558,1212091.20538847,1212095.0045473,1.1794761645142,1,0,180,180,0,24,0.2,0.5,0.2,6876,0.130500547355041,NaN,0.723720886278898,1.24914461513981,1.46948359813541,2.64895976264961,NaN,NaN,NaN,18,1.23284596,1.438851781
2,468,1212095.00734484,1212098.30781334,0.593988652108237,0,1,180,180,0,60,0.4,0.5,0.2,6990,0.125193603336811,NaN,0.718413942260668,1.14214275567792,1.54892241675407,2.1429110688623,NaN,NaN,NaN,30,1.116770515,1.523298171
2,256,1212098.31044905,1212101.86357594,0.992388071957976,1,0,180,180,0,12,0.2,0.5,0.2,4554,0.144123105565086,NaN,0.8898858174216,1.21191971562803,1.41530954628251,2.40769761824049,NaN,NaN,NaN,17,1.181560625,1.389615544
2,150,1212101.86623649,1212105.33379196,0.473645713878796,1,1,180,0,1,24,0.3,0.5,0.2,1225,0.130624238867313,NaN,0.757742882939056,1.52045474736951,1.84248864557594,2.31613435945474,NaN,NaN,NaN,25,1.491401168,1.82057542
2,324,1212105.33657878,1212108.43403237,0.631554249906912,0,1,180,180,0,60,0.2,0.5,0.2,2625,0.134837708668783,NaN,0.745007200166583,1.1009394035209,1.31813727784902,1.94969152775593,NaN,NaN,NaN,18,1.075147165,1.2860231
2,190,1212108.4368217,1212111.69140427,1.00614411360584,1,0,180,180,0,48,0.1,0.5,0.2,4679,0.133170071989298,NaN,0.726390410913154,0.997472386574373,1.0991673017852,2.10531141539104,NaN,NaN,NaN,11,0.969957673,1.071205185
2,101,1212111.69422481,1212115.34064864,0.879140536068007,1,0,0,180,1,24,0.4,0.5,0.2,1098,0.129898700863123,NaN,0.841763107571751,1.16379700577818,1.60079562105238,2.47993615712039,NaN,NaN,NaN,31,1.13942542,1.568748257
2,224,1212115.34336757,1212118.82861702,0.620512606343254,1,0,180,180,0,36,0.4,0.5,0.2,7099,0.13809409388341,NaN,0.731314432807267,1.29063646681607,1.71436528046615,2.33487788680941,NaN,NaN,NaN,30,1.271955579,1.687750453
2,275,1212118.83138095,1212122.25044777,0.493995397351682,1,1,0,0,0,60,0.3,0.5,0.2,6824,0.124656088883057,NaN,0.768723885528743,1.46363913989626,1.78496966231614,2.27896505966783,NaN,NaN,NaN,24,1.442277704,1.752565314
2,439,1212122.25314734,1212125.88613622,0.789949398720637,1,1,0,0,0,36,0.2,0.5,0.2,4308,0.125916283577681,NaN,0.73608577507548,1.48184848693199,1.69925072416663,2.48920012288727,NaN,NaN,NaN,18,1.457646247,1.666826341
2,13,1212125.88883467,1212129.02100268,0.615172766847536,1,1,0,0,0,0,0.2,0.5,0.2,157,0.131359008839354,NaN,0.724579347996041,1.16525731398724,1.36622399860062,1.98139676544815,NaN,NaN,NaN,16,1.132576869,1.334149413
2,749,1212129.02364379,1212133.36236437,0.890799160813913,0,0,0,0,0,24,0.3,0.5,0.2,8805,0.130241306265816,NaN,0.774309102911502,1.9946480859071,2.29973283177242,3.19053199258633,NaN,NaN,NaN,23,1.964362734,2.269372598
2,482,1212133.36519516,1212136.68008466,0.786989259300753,1,0,180,180,0,0,0.1,0.5,0.2,2171,0.127672721166164,NaN,0.94123204331845,1.26326594152488,1.38191000930965,2.1688992686104,NaN,NaN,NaN,12,1.230868375,1.346586181
2,223,1212136.68279175,1212139.88225606,0.612152946880087,0,1,0,180,1,36,0.4,0.5,0.2,7572,0.132110306760296,NaN,0.725330645684153,0.996517086401582,1.43138985382393,2.04354280070402,NaN,NaN,NaN,30,0.979782839,1.398977794
2,410,1212139.88497088,1212143.50570855,0.719190328847617,0,1,180,180,0,0,0.5,0.5,0.2,5151,0.127466536359861,NaN,0.754585180431604,1.24611060414463,1.7541238272097,2.47331415605731,NaN,NaN,NaN,35,1.216471482,1.733005511
2,656,1212143.50842104,1212149.65598365,NaN,NaN,NaN,180,180,0,36,0.5,0.5,0.2,5178,0.130294814007357,NaN,NaN,NaN,NaN,NaN,NaN,NaN,NaN,1,NaN,NaN
2,562,1212149.65872384,1212155.79760877,NaN,NaN,NaN,180,180,0,48,0.2,0.5,0.2,5644,0.132532664807513,NaN,NaN,NaN,NaN,NaN,NaN,NaN,NaN,1,NaN,NaN
2,383,1212155.80037094,1212161.93435767,NaN,NaN,NaN,0,0,0,60,0.2,0.5,0.2,228,0.126481092069298,NaN,NaN,NaN,NaN,NaN,NaN,NaN,NaN,1,NaN,NaN
2,520,1212161.93745608,1212168.07662375,NaN,NaN,NaN,180,0,1,12,0.4,0.5,0.2,1456,0.124988234136254,NaN,NaN,NaN,NaN,NaN,NaN,NaN,NaN,1,NaN,NaN
2,826,1212168.07946057,1212174.22986428,NaN,NaN,NaN,180,180,0,48,0.4,0.5,0.2,1182,0.135525894584134,NaN,NaN,NaN,NaN,NaN,NaN,NaN,NaN,1,NaN,NaN
2,457,1212174.23264138,1212180.36608931,NaN,NaN,NaN,0,180,1,0,0.4,0.5,0.2,928,0.134846976958215,NaN,NaN,NaN,NaN,NaN,NaN,NaN,NaN,1,NaN,NaN
2,489,1212180.36897523,1212186.50504666,NaN,NaN,NaN,0,0,0,48,0.1,0.5,0.2,2794,0.134116014931351,NaN,NaN,NaN,NaN,NaN,NaN,NaN,NaN,1,NaN,NaN
2,750,1212186.5079642,1212192.64946111,NaN,NaN,NaN,180,0,1,24,0.3,0.5,0.2,4563,0.147566325496882,NaN,NaN,NaN,NaN,NaN,NaN,NaN,NaN,1,NaN,NaN
2,262,1212192.65222784,1212196.3031306,0.485851920209825,0,1,180,180,0,48,0.2,0.5,0.2,7643,0.13890403881669,NaN,1.05415827594697,1.81687014037743,2.02025997103192,2.50611189124174,NaN,NaN,NaN,17,1.788156853,1.993037552
2,511,1212196.30581798,1212199.35407783,0.380129761528224,1,1,0,0,0,36,0.3,0.5,0.2,4728,0.130481729283929,NaN,0.791498678503558,1.19835559441708,1.52038949262351,1.90051925415173,NaN,NaN,NaN,25,1.176416218,1.491807652
2,396,1212199.35677878,1212202.3254185,0.382099057547748,0,1,180,180,0,60,0.3,0.5,0.2,7115,0.130270744906738,NaN,0.859084304189309,1.13027074490674,1.43535549053922,1.81745454808697,NaN,NaN,NaN,23,1.106585129,1.410087013
2,248,1212202.32822499,1212205.09405476,0.395524304592982,0,1,180,180,0,36,0.1,0.5,0.2,6036,0.124895920278504,NaN,0.802862022072077,1.09099761513062,1.22659083548933,1.62211514008231,NaN,NaN,NaN,12,1.074754279,1.190916005
2,358,1212205.09684796,1212208.51651276,0.430306693539023,0,1,180,180,0,48,0.5,0.5,0.2,4367,0.1359333016444,NaN,0.7461027931422,1.33982722391374,1.84706151834689,2.27736821188591,NaN,NaN,NaN,36,1.314338431,1.825005835
2,577,1212208.51932145,1212211.86697741,0.393380110617727,1,1,0,0,0,0,0.4,0.5,0.2,9433,0.136484674178064,NaN,0.72970501310192,1.37377280974761,1.79750162339769,2.19088173401542,NaN,NaN,NaN,31,1.355104781,1.771870164
2,332,1212211.86976344,1212215.22072191,0.643751572817564,0,0,180,0,1,36,0.3,0.5,0.2,3691,0.125006074551493,NaN,0.786023023771122,1.22670098999515,1.54873488820158,2.19248646101914,NaN,NaN,NaN,25,1.194893827,1.524151593
2,146,1212215.22359662,1212218.62698927,0.652980108978227,1,0,180,180,0,0,0.3,0.5,0.2,8897,0.144071893300861,NaN,0.720343079883605,1.27966511365958,1.60169901209883,2.25467912107706,NaN,NaN,NaN,25,1.258652735,1.573005733
2,883,1212218.6297907,1212221.51072576,0.354392432840541,1,1,0,0,0,36,0.4,0.5,0.2,8171,0.127709621563554,NaN,0.737879113061354,0.975167248630896,1.38194690970704,1.73633934254758,NaN,NaN,NaN,29,0.947875937,1.352997241
2,600,1212221.51354246,1212225.31378576,0.498109300155193,1,1,180,0,1,60,0.5,0.5,0.2,8537,0.125312923686579,NaN,0.921923093264922,1.61683834739961,2.15463653812185,2.65274583827704,NaN,NaN,NaN,38,1.597479585,2.122292864
2,771,1212225.31642295,1212229.29753629,0.406441676197574,1,1,0,0,0,12,0.5,0.5,0.2,9821,0.131299717584625,NaN,0.690621751360595,1.91096073435619,2.41943531064317,2.82587698684074,NaN,NaN,NaN,36,1.880116127,2.384714148
2,144,1212229.30036024,1212232.95598564,0.732152099721134,0,1,180,180,0,60,0.2,0.5,0.2,4365,0.130665431031957,NaN,0.961173905525357,1.57134339702316,1.77381385024637,2.5059659499675,NaN,NaN,NaN,18,1.540616707,1.741430452
2,559,1212232.95877622,1212236.05620047,0.525544660398737,1,1,0,0,0,36,0.2,0.5,0.2,5604,0.132350245723501,NaN,0.759468889795244,1.20014685578644,1.41797871002927,1.94352337042801,NaN,NaN,NaN,18,1.174249513,1.385969482
2,457,1212236.058845,1212239.37556809,0.513643083628267,1,1,0,0,0,0,0.4,0.5,0.2,7942,0.13102391641587,NaN,0.775091713061556,1.250115246512,1.65778159047477,2.17142467410304,NaN,NaN,NaN,29,1.220524196,1.62190973
2,529,1212239.37831869,1212242.9499237,0.45450699958019,0,1,0,180,1,0,0.5,0.5,0.2,1134,0.134935730602592,NaN,0.779003527248278,1.44002047646791,1.96544420532882,2.41995120490901,NaN,NaN,NaN,37,1.420544299,1.938795085
2,466,1212242.95262018,1212246.18450274,0.609693114412948,1,1,180,0,1,48,0.4,0.5,0.2,1848,0.136904900427908,NaN,0.747074391925707,1.05215913755819,1.47588795120828,2.08558106562123,NaN,NaN,NaN,31,1.023722146,1.450167333
2,791,1212246.1871248,1212249.90433773,0.618551368592307,1,1,0,0,0,60,0.1,0.5,0.2,8788,0.139689513714984,NaN,0.631214937428012,1.83460476784967,1.95254314225167,2.57109451084398,NaN,NaN,NaN,11,1.817059552,1.918728525
2,676,1212249.90707501,1212253.29277198,0.58707461017184,0,1,180,180,0,12,0.2,0.5,0.2,3993,0.130806897068396,NaN,0.53758655814454,1.45284079527482,1.65623062592931,2.24330523610115,NaN,NaN,NaN,18,1.427581905,1.635074304
2,492,1212253.29545639,1212256.36111126,0.600191114237532,0,1,180,180,0,60,0.1,0.5,0.2,209,0.132256275508553,NaN,0.691578309284523,1.20005288557149,1.31869695335627,1.9188880675938,NaN,NaN,NaN,12,1.175135156,1.282499126
2,781,1212256.36391092,1212259.72901574,0.815661773318425,1,1,0,0,0,0,0.1,0.5,0.2,4007,0.131596966646612,NaN,0.758715610718355,1.28413933957927,1.40278340736404,2.21844518068247,NaN,NaN,NaN,11,1.266833057,1.38329093
2,834,1212259.73168483,1212263.23499,0.464069674257189,0,1,180,180,0,24,0.5,0.5,0.2,1157,0.136656830320135,NaN,0.797673779539764,1.37394496588968,1.88241954217665,2.34648921643384,NaN,NaN,NaN,36,1.347002915,1.851995437
2,770,1212263.23773092,1212267.50547604,0.591603341512382,1,0,180,180,0,0,0.5,0.5,0.2,4222,0.122143387794495,NaN,0.800109489588067,2.02044847258367,2.52892304887064,3.12052639038302,NaN,NaN,NaN,36,1.99036104,2.499321052
2,45,1212267.50825412,1212270.70706379,0.588086201576516,0,1,0,180,1,48,0.4,0.5,0.2,5678,0.139797319658101,NaN,0.783865116303787,1.02115325187333,1.46183121786453,2.04991741944104,NaN,NaN,NaN,31,0.997459079,1.431486894
2,786,1212270.70985646,1212273.94702787,0.845125303138047,1,0,180,180,0,24,0.1,0.5,0.2,2429,0.124598016962409,NaN,0.785614965949208,1.12459801696241,1.24324208474718,2.08836738788523,NaN,NaN,NaN,11,1.106318161,1.21548778
2,99,1212273.94992314,1212277.36450698,0.590004052734002,1,1,0,0,0,12,0.4,0.5,0.2,5968,0.121857382589951,NaN,0.715077721513808,1.27439975528978,1.68235991708934,2.27236396982335,NaN,NaN,NaN,29,1.256664293,1.662288153
2,189,1212277.36722128,1212281.15080339,0.805670056957752,0,0,0,0,0,48,0.1,0.5,0.2,1510,0.130465610418469,NaN,0.774533407064155,1.70673679676838,1.82538086455315,2.63105092151091,NaN,NaN,NaN,11,1.689297885,1.797717261
2,229,1212281.15344892,1212285.05332435,0.531290005426854,1,1,0,0,0,0,0.5,0.5,0.2,2014,0.123856666265056,NaN,0.750975310336798,1.71707700518891,2.22555158147588,2.75684158690274,NaN,NaN,NaN,35,1.685847269,2.198266094
2,677,1212285.05608646,1212288.54323792,0.75707226106897,1,1,0,0,0,24,0.2,0.5,0.2,7164,0.136513928417116,NaN,0.746683419914916,1.35685291164555,1.57719189464115,2.33426415571012,NaN,NaN,NaN,17,1.338305367,1.548166174
2,621,1212288.5458726,1212291.59508468,0.838974009733647,1,1,0,0,0,48,0.2,0.5,0.2,2799,0.121305997017771,NaN,0.56198396300897,0.850119556300342,1.053509386722,1.89248339645565,NaN,NaN,NaN,17,0.820690916,1.027652972
2,659,1212291.59790451,1212295.58048661,0.381189569830894,0,1,0,180,1,60,0.5,0.5,0.2,8384,0.137071564793587,NaN,0.7133427511435,1.93368173437193,2.45910546300001,2.84029503283091,NaN,NaN,NaN,37,1.902012941,2.431028301
2,784,1212295.58313403,1212299.32185606,0.53308275854215,1,0,180,180,0,12,0.1,0.5,0.2,787,0.134834345430136,NaN,0.728054684353992,1.94839366758242,2.05008858279325,2.5831713413354,NaN,NaN,NaN,12,1.91690797,2.030296805
2,213,1212299.32473177,1212303.35760076,0.565207757754251,0,1,0,180,1,48,0.3,0.5,0.2,1724,0.139055909821764,NaN,0.766174553893507,1.98651353688911,2.3244055332616,2.88961329101585,NaN,NaN,NaN,25,1.967443545,2.29194309
2,406,1212303.3604051,1212306.84306539,0.558941528433934,1,0,180,180,0,48,0.4,0.5,0.2,9164,0.136190742254257,NaN,0.81415684404783,1.35750050214119,1.77477772999555,2.33371925842948,NaN,NaN,NaN,29,1.331892994,1.742703271
2,158,1212306.84575975,1212310.34425867,0.84272278752178,1,1,180,0,1,0,0.4,0.5,0.2,9070,0.13638721848838,NaN,0.763505862560123,1.06859060819261,1.50987214106135,2.35259492858313,NaN,NaN,NaN,30,1.051917363,1.477019121
2,438,1212310.34698095,1212313.69942104,0.926260276231915,0,1,180,180,0,24,0.2,0.5,0.2,5805,0.127002615947276,NaN,0.737172107445076,1.05936930095777,1.27713237097487,2.20339264720678,NaN,NaN,NaN,17,1.031788958,1.244782197
2,841,1212313.70211343,1212316.65145515,0.70117050386034,1,1,0,0,0,0,0.1,0.5,0.2,9730,0.125150474021211,NaN,0.718370812945068,0.972608101088554,1.09105976507999,1.79223026894033,NaN,NaN,NaN,12,0.942725308,1.058647227
2,284,1212316.65410027,1212320.37150098,0.598547427682206,1,1,180,0,1,36,0.4,0.5,0.2,3097,0.139072278747335,NaN,0.630597702460364,1.56280109216459,1.96958075324073,2.56812818092294,NaN,NaN,NaN,30,1.540057379,1.945360245
2,23,1212320.37414739,1212323.77760976,0.600417085224763,1,1,0,0,0,60,0.2,0.5,0.2,8565,0.130251970607787,NaN,0.75737061467953,1.43533671624027,1.6556756994687,2.25609278469346,NaN,NaN,NaN,18,1.414335233,1.626261816
2,265,1212323.78023093,1212327.81371407,0.79348713462241,1,0,0,180,1,0,0.3,0.5,0.2,3901,0.130439140601084,NaN,0.77450693724677,1.75755778467283,2.0965408354532,2.89002797007561,NaN,NaN,NaN,26,1.739728033,2.073152407
2,35,1212327.81651667,1212331.56671196,0.808953762287274,1,1,0,0,0,60,0.3,0.5,0.2,6761,0.128054069820791,NaN,1.02635915437713,1.48398627317511,1.78882595803589,2.59777972032316,NaN,NaN,NaN,24,1.454828776,1.756690306
2,282,1212331.56937984,1212336.23711028,0.692290512146428,0,1,180,180,0,24,0.4,0.5,0.2,4023,0.137657964369282,NaN,1.20545457466505,2.42579355766065,2.83257321850397,3.5248637306504,NaN,NaN,NaN,30,2.394537161,2.807669388
2,787,1212336.2398378,1212339.5763699,0.791035825619474,0,0,0,0,0,36,0.1,0.5,0.2,9224,0.128180170664564,NaN,0.755298814736307,1.29767169593833,1.39936661138199,2.19040243700147,NaN,NaN,NaN,11,1.266326771,1.373264887
2,106,1212339.5791428,1212343.59517127,0.5358288125135,1,1,180,0,1,48,0.4,0.5,0.2,9474,0.127894165692851,NaN,0.687216199701652,1.89060603012331,2.33128399611451,2.86711280862801,NaN,NaN,NaN,32,1.872767731,2.304055049
2,58,1212343.59780309,1212346.99561354,0.613824471598491,1,1,180,0,1,48,0.5,0.5,0.2,9133,0.126166561385617,NaN,0.736336052883416,1.10921740881167,1.63464113767259,2.24846560927108,NaN,NaN,NaN,37,1.078838749,1.604869731
2,685,1212346.99825562,1212350.73370281,0.536372926086187,1,1,0,0,0,0,0.3,0.5,0.2,7334,0.132464648457244,NaN,1.3358544788789,1.74263413995504,2.04771888558753,2.58409181167372,NaN,NaN,NaN,23,1.718173179,2.02411157
2,446,1212350.73649701,1212354.03931002,0.475192423677072,0,0,180,0,1,0,0.3,0.5,0.2,1819,0.140033151954412,NaN,0.834948406089097,1.36037213495001,1.68240603315644,2.15759845683351,NaN,NaN,NaN,26,1.328202304,1.65560546
2,167,1212354.04196392,1212357.47290389,0.407820337684825,1,1,0,0,0,60,0.4,0.5,0.2,1409,0.122701410204172,NaN,0.546430223854259,1.46168446121737,1.86848957836628,2.2763099160511,NaN,NaN,NaN,30,1.430521961,1.836053596
2,179,1212357.47570471,1212361.06055962,0.413333821808919,0,1,0,180,1,60,0.5,0.5,0.2,9312,0.146582290297374,NaN,0.739802629221231,1.50251449365169,2.02118027559482,2.43451409740373,NaN,NaN,NaN,36,1.480842772,1.990929413
2,880,1212361.06342477,1212364.95057737,0.739877294516191,0,1,180,180,0,12,0.4,0.5,0.2,319,0.128378466702998,NaN,0.80634456849657,1.58572666649707,2.00291221751831,2.74278951203451,NaN,NaN,NaN,29,1.564524702,1.970753628
2,875,1212364.95336423,1212368.38677425,0.646253749728203,1,1,0,0,0,60,0.3,0.5,0.2,8639,0.13013115990907,NaN,0.774198956554756,1.33352099033073,1.63860573619604,2.28485948592424,NaN,NaN,NaN,24,1.313147029,1.616883384
2,662,1212368.38957363,1212371.92014326,0.71664763148874,1,0,180,180,0,0,0.1,0.5,0.2,2550,0.134597090538591,NaN,0.778664887184277,1.54137675161473,1.66002081939951,2.37666845088825,NaN,NaN,NaN,12,1.519107171,1.633362023
2,413,1212371.92293549,1212376.30885699,0.752777242800221,0,0,0,0,0,24,0.5,0.5,0.2,3073,0.14360879175365,NaN,0.787676588399336,1.95716811390594,2.48259184253402,3.23536908533424,NaN,NaN,NaN,35,1.939202784,2.453792364
2,427,1212376.31150488,1212379.63102952,0.920313836308196,0,0,0,0,0,36,0.1,0.5,0.2,2421,0.127921468345448,NaN,0.788938417565078,1.12792146834545,1.24656553613022,2.16687937243842,NaN,NaN,NaN,12,1.111674075,1.217841786
2,29,1212379.63374888,1212383.85135757,0.814137746579945,1,1,0,0,0,24,0.3,0.5,0.2,5647,0.12771163880825,NaN,0.720931977964938,1.94127096096054,2.24635570682585,3.0604934534058,NaN,NaN,NaN,23,1.914570363,2.215704583
2,399,1212383.85417734,1212387.62029924,0.6829092069529,0,1,0,180,1,12,0.4,0.5,0.2,7106,0.144568696385249,NaN,0.856433103093877,1.51745005231351,1.94117886573076,2.62408807268366,NaN,NaN,NaN,31,1.48799804,1.915311835
2,897,1212387.62309225,1212391.90713759,0.58104228740558,1,1,0,0,0,48,0.5,0.5,0.2,882,0.121419488452375,NaN,0.833283895161003,2.0536228781566,2.56209745444357,3.14313974184915,NaN,NaN,NaN,36,2.028906264,2.53314068
2,518,1212391.90983278,1212395.39205223,0.604733739048243,0,1,180,180,0,0,0.4,0.5,0.2,8173,0.122784479754046,NaN,1.02108956454322,1.30922515783459,1.7317019936163,2.33643573266454,NaN,NaN,NaN,29,1.291041049,1.698926383
2,196,1212395.39471848,1212398.36509143,0.581641387660056,1,0,180,180,0,12,0.2,0.5,0.2,261,0.145151018165052,NaN,0.789218814810738,1.02650695038028,1.22989678080194,1.81153816846199,NaN,NaN,NaN,17,0.994302544,1.200237149
2,726,1212398.36788021,1212401.16523251,0.626991611672565,1,0,180,180,0,24,0.1,0.5,0.2,2198,0.138091120636091,NaN,0.680464002070948,0.917752137640491,1.01944705285132,1.64643866452388,NaN,NaN,NaN,12,0.886221483,0.996302209
2,736,1212401.16787639,1212404.27065743,0.442694151774049,1,0,180,180,0,12,0.2,0.5,0.2,9949,0.1347038988024,NaN,0.778771695215255,1.30419542407617,1.50758525473066,1.95027940650471,NaN,NaN,NaN,16,1.281359906,1.482159651
2,290,1212404.2734567,1212407.53923407,0.376646891003475,1,0,180,180,0,0,0.5,0.5,0.2,4817,0.146947677247226,NaN,0.774066321318969,1.23169343988411,1.74016801617108,2.11681490717456,NaN,NaN,NaN,35,1.204563079,1.712656714
2,758,1212407.5420548,1212410.82443458,0.22378142690286,1,0,180,180,0,0,0.4,0.5,0.2,3387,0.132639976916835,NaN,0.691962010692805,1.50552133284509,1.91251565353014,2.136297080433,NaN,NaN,NaN,29,1.475708334,1.880612761
2,211,1212410.82715598,1212414.29821412,0.559724993770942,1,1,0,0,0,36,0.3,0.5,0.2,7779,0.135889098746702,NaN,0.729109437670559,1.44097384437919,1.7633713434916,2.32309633726254,NaN,NaN,NaN,23,1.415026582,1.731519995
2,862,1212414.30100121,1212417.74963061,0.678527056705207,1,0,180,180,0,48,0.2,0.5,0.2,265,0.136982299620286,NaN,0.814948401413858,1.3915529823862,1.61074896575883,2.28927602246404,NaN,NaN,NaN,17,1.370659636,1.576092494
2,70,1212417.75253432,1212421.41879244,0.63865045690909,1,0,180,180,0,48,0.1,0.5,0.2,5428,0.142266923794523,NaN,0.633792347507551,1.76938556786627,1.87108048307709,2.50973093998618,NaN,NaN,NaN,11,1.741510788,1.84761792
2,560,1212421.42145453,1212424.52485481,0.632036964409053,1,0,180,180,0,36,0.2,0.5,0.2,3967,0.13436565338634,NaN,0.727585992543027,1.11741650104523,1.32080633146688,1.95284329587594,NaN,NaN,NaN,17,1.091386423,1.2952228
2,430,1212424.52768955,1212427.80896949,0.725340363336727,1,0,180,180,0,48,0.1,0.5,0.2,352,0.130041371332482,NaN,0.774109167978168,1.29953289683908,1.40122781204991,2.12656817538664,NaN,NaN,NaN,11,1.271275551,1.375045977
2,88,1212427.81180859,1212431.24460242,0.615091644227505,1,0,180,180,0,12,0.3,0.5,0.2,5719,0.134047595085576,NaN,0.845912001794204,1.35438657808118,1.65939775598235,2.27448940020986,NaN,NaN,NaN,23,1.321915176,1.626977955
2,597,1212431.24727798,1212435.55244526,0.597759804921225,1,1,0,0,0,48,0.5,0.5,0.2,6831,0.139192208880559,NaN,0.834107463015243,2.0374972934369,2.56105080945417,3.1588106143754,NaN,NaN,NaN,36,2.020783347,2.528571474
2,745,1212435.55528476,1212439.6731395,0.599316277075559,1,1,0,0,0,0,0.3,0.5,0.2,5064,0.134401153773069,NaN,0.846265560481697,2.04965539090335,2.37168928934261,2.97100556641817,NaN,NaN,NaN,24,2.032993948,2.340502502
2,301,1212439.67597648,1212443.31749516,0.425861748401076,1,1,0,0,0,0,0.1,0.5,0.2,7883,0.132353700464591,NaN,0.928963869810104,1.96286217495799,2.06455709016882,2.49041883856989,NaN,NaN,NaN,11,1.937217674,2.039554688
2,207,1212443.32015315,1212446.74411895,0.518803655402735,1,1,0,0,0,12,0.3,0.5,0.2,7738,0.132232066709548,NaN,0.81019816827029,1.45426596491598,1.75935071078129,2.27815436618403,NaN,NaN,NaN,24,1.426267899,1.731425026
2,625,1212446.74694614,1212450.82970032,0.572810934390873,0,1,0,180,1,0,0.3,0.5,0.2,6260,0.129179632058367,NaN,0.824094886425883,2.04443386942148,2.36646776762791,2.93927870201878,NaN,NaN,NaN,25,2.016956291,2.34158732
2,250,1212450.83253539,1212454.06664656,0.720055585727096,0,1,180,180,0,48,0.1,0.5,0.2,706,0.128489650553092,NaN,0.772557446965948,1.24713371833786,1.36577778612264,2.08583337184973,NaN,NaN,NaN,12,1.228374267,1.341953377
2,95,1212454.06935528,1212457.30393849,0.681402268121019,0,1,0,180,1,60,0.3,0.5,0.2,9288,0.128937155241147,NaN,0.806903256801888,1.0775928045623,1.39962670276873,2.08102897088975,NaN,NaN,NaN,24,1.056260464,1.374339592
2,484,1212457.30662232,1212460.63832199,0.754373049363494,1,0,180,180,0,12,0.1,0.5,0.2,1544,0.128500284161419,NaN,0.80646638572216,1.31466089002788,1.43330495781265,2.18767800717615,NaN,NaN,NaN,12,1.29026954,1.406138533
2,722,1212460.64114204,1212463.74294071,0.816564267268404,0,1,180,180,0,0,0.1,0.5,0.2,8673,0.132644150173292,NaN,0.776711946586147,1.03094923472963,1.13264415017329,1.9492084174417,NaN,NaN,NaN,11,1.001014183,1.107666396
2,114,1212463.74575878,1212467.09617888,0.532867704983801,1,1,180,0,1,24,0.5,0.5,0.2,8787,0.130659287329763,NaN,0.757777931401506,1.13065928732976,1.67161825858057,2.20448596356437,NaN,NaN,NaN,38,1.108190516,1.639632357
2,435,1212467.09893815,1212470.26782489,0.684956804150715,1,1,0,0,0,12,0.2,0.5,0.2,9973,0.132025510072708,NaN,0.742195001570508,1.11411561095156,1.33445459394716,2.01941139809787,NaN,NaN,NaN,18,1.092988645,1.305457776
2,497,1212470.27074718,1212473.62189807,0.629084199666977,0,0,0,0,0,24,0.2,0.5,0.2,2892,0.128754708915949,NaN,0.789771658135578,1.36604284448549,1.57031375635415,2.19939795602113,NaN,NaN,NaN,18,1.333764392,1.536464452
2,421,1212473.62469563,1212477.45648344,0.843027229653671,0,0,0,0,0,0,0.1,0.5,0.2,5584,0.130797107936814,NaN,0.791814057156444,1.74096659943461,1.84266151464544,2.68568874429911,NaN,NaN,NaN,11,1.715381325,1.818742276
2,491,1212477.45914101,1212481.62362335,0.93520020856522,1,1,0,0,0,60,0.1,0.5,0.2,7296,0.126826677005738,NaN,0.753945321077481,1.97428430407308,2.07597921951674,3.01117942808196,NaN,NaN,NaN,11,1.952947863,2.054944655
2,766,1212481.62626415,1212484.98196112,0.701873934594914,1,1,180,0,1,48,0.4,0.5,0.2,8158,0.129196034278721,NaN,0.73936552577652,1.06139942398295,1.50207739020698,2.20395132480189,NaN,NaN,NaN,31,1.045329297,1.473391331
2,593,1212484.98469684,1212488.4326064,0.57649128488265,1,1,0,0,0,24,0.5,0.5,0.2,4340,0.126728655770421,NaN,0.753847299842164,1.19452526606619,1.71701583056711,2.29350711544976,NaN,NaN,NaN,36,1.176886868,1.684917496
2,365,1212488.43541012,1212491.48638376,0.674474873812869,0,0,0,0,0,24,0.1,0.5,0.2,284,0.147572287125513,NaN,0.808589236112311,1.11367398197763,1.2323180497624,1.90679292357527,NaN,NaN,NaN,12,1.092368297,1.203302422
2,843,1212491.48927956,1212494.62433964,0.785625557880849,1,1,0,0,0,12,0.1,0.5,0.2,5578,0.127601662650704,NaN,0.788618611637503,1.07675420492887,1.19539827271365,1.98102383059449,NaN,NaN,NaN,12,1.052939528,1.168230985
2,471,1212494.62698098,1212498.20961462,0.852502502501011,1,0,0,180,1,12,0.5,0.5,0.2,7377,0.142448134254664,NaN,0.735668473411351,1.04075321904384,1.58269274095073,2.43519524345174,NaN,NaN,NaN,38,1.020071492,1.550311339
2,647,1212498.21224476,1212502.36435347,0.709146153647453,0,1,0,180,1,60,0.4,0.5,0.2,1539,0.133023560512811,NaN,0.861837119795382,1.86153086321428,2.30096077732742,3.01010693097487,NaN,NaN,NaN,32,1.834977962,2.268546697
2,5,1212502.36712996,1212505.78623957,0.81457894272171,1,1,0,0,0,24,0.1,0.5,0.2,2953,0.129124109633267,NaN,0.891835974063724,1.33251394005492,1.44863455719315,2.26321349991485,NaN,NaN,NaN,11,1.303528169,1.416545902
2,403,1212505.78891969,1212509.02067513,0.651496523758397,0,1,0,180,1,36,0.4,0.5,0.2,794,0.128540514502674,NaN,0.77260831114836,1.00972274015658,1.42972752428614,2.08122404804453,NaN,NaN,NaN,30,0.979144399,1.397585921
2,66,1212509.02347871,1212512.87385755,0.906320345820859,0,1,180,180,0,24,0.1,0.5,0.2,758,0.127371862530708,NaN,0.754490506602451,1.68669389653951,1.78838881175034,2.6947091575712,NaN,NaN,NaN,12,1.657625234,1.765830276
2,753,1212512.87665679,1212516.62701769,1.09821734321304,1,1,0,0,0,48,0.3,0.5,0.2,8892,0.138601649552584,NaN,0.901313513983041,1.20639825984836,1.51148300571367,2.60970034892671,NaN,NaN,NaN,23,1.173493776,1.482347754
2,19,1212516.62982195,1212520.88401222,0.714488117257133,1,1,0,0,0,36,0.2,0.5,0.2,5944,0.130279902368784,NaN,0.94383922428824,2.16417820751667,2.38203271548264,3.09652083273977,NaN,NaN,NaN,17,2.134676922,2.348660935
2,234,1212520.88674798,1212524.51978975,0.723113335203379,1,1,180,0,1,24,0.5,0.5,0.2,7690,0.12510818708688,NaN,0.887820051517338,1.22626774106175,1.76442150003277,2.48753483523615,NaN,NaN,NaN,36,1.20090822,1.729171124
2,839,1212524.52260459,1212528.85598885,0.567060413537547,0,1,0,180,1,60,0.5,0.5,0.2,3245,0.128635554807261,NaN,0.95914402930066,2.07775675295852,2.61260223691352,3.17966265045106,NaN,NaN,NaN,36,2.056624859,2.580227482
2,634,1212528.85869093,1212532.29099083,0.567745667649433,1,1,180,0,1,48,0.3,0.5,0.2,8748,0.123939781449735,NaN,0.835804188158363,1.39512622216716,1.71572360978462,2.28346927743405,NaN,NaN,NaN,24,1.36279928,1.68094903
2,160,1212532.29379049,1212535.6142068,0.501448231749237,1,0,180,180,0,12,0.4,0.5,0.2,5829,0.12811549147591,NaN,0.789132440695539,1.24654881004244,1.66711190179922,2.16856013354845,NaN,NaN,NaN,29,1.222148622,1.631239278
2,238,1212535.61685228,1212539.45030635,0.587692990433425,1,1,180,0,1,48,0.5,0.5,0.2,5431,0.123712359229103,NaN,0.852525918511674,1.5643903252203,2.08981405408122,2.67750704451464,NaN,NaN,NaN,36,1.536308394,2.061434073
2,799,1212539.45311054,1212542.33420568,0.432909578084946,1,1,0,0,0,36,0.2,0.5,0.2,387,0.134909832151607,NaN,0.76202847622335,1.08406237466261,1.30440135765821,1.73731093574315,NaN,NaN,NaN,17,1.065660898,1.277724827
2,586,1212542.33695682,1212546.4537083,0.636047250591218,1,0,180,180,0,48,0.4,0.5,0.2,4543,0.132419648813084,NaN,0.810385750606656,1.9114737987984,2.32920584082603,2.96525309141725,NaN,NaN,NaN,30,1.886174259,2.29684858
2,137,1212546.45641345,1212551.14719034,1.416840122547,0,0,0,0,0,24,0.2,0.5,0.2,2895,0.125004541128874,NaN,0.836868947837502,1.92161471047439,2.12500454112887,3.54184466367587,NaN,NaN,NaN,17,1.893271202,2.100582837
2,353,1212551.15013223,1212555.13263246,0.716638129437342,0,0,0,0,0,24,0.5,0.5,0.2,4746,0.126201099716127,NaN,0.922811269294471,1.60077737085521,2.12334256106988,2.83998069050722,NaN,NaN,NaN,37,1.574314679,2.090819309
2,516,1212555.13540735,1212558.91889521,0.696176225086674,1,1,180,0,1,60,0.3,0.5,0.2,1870,0.1210747519508,NaN,0.900735768955201,1.61260017566383,1.93463407387026,2.63081029895693,NaN,NaN,NaN,25,1.584905851,1.908869761
2,822,1212558.92173327,1212562.73796707,0.710707786958665,1,0,180,180,0,24,0.4,0.5,0.2,145,0.131403059465811,NaN,0.843267466174439,1.53818272030912,1.9578264595475,2.66853424650617,NaN,NaN,NaN,29,1.520944061,1.925857222
2,175,1212562.74077758,1212566.34462496,0.866430808557197,0,0,0,0,0,36,0.5,0.5,0.2,2571,0.138781579677016,NaN,0.850645986385643,1.07098496938124,1.59104666463099,2.45747747318819,NaN,NaN,NaN,36,1.049964523,1.559294564
2,260,1212566.34745249,1212569.71296455,0.922968491213396,1,0,180,180,0,36,0.2,0.5,0.2,8871,0.136914526345208,NaN,0.780982322758064,1.08606706862338,1.28766652243212,2.21063501364551,NaN,NaN,NaN,17,1.053217321,1.25558288
2,612,1212569.71574566,1212573.38212201,0.789346887730062,0,1,180,180,0,60,0.1,0.5,0.2,4514,0.139868540223688,NaN,0.834783794358373,1.63139396393672,1.73308887914754,2.52243576687761,NaN,NaN,NaN,11,1.605464254,1.707014874
2,802,1212573.38494237,1212576.43268739,0.642994953785092,0,1,180,180,0,48,0.2,0.5,0.2,6827,0.131649961927906,NaN,0.775717758573592,1.04690419929102,1.25029402971268,1.89328898349777,NaN,NaN,NaN,17,1.01927396,1.223690158
2,809,1212576.43540831,1212580.40506331,0.776159337488934,0,0,0,0,0,24,0.3,0.5,0.2,6678,0.132082117255777,NaN,0.75920076132752,1.74225160875358,2.04279675614089,2.81895609362982,NaN,NaN,NaN,23,1.710164852,2.012840348
2,98,1212580.4077821,1212584.12460183,0.46136209834367,1,1,180,0,1,0,0.4,0.5,0.2,4416,0.122152160154656,NaN,0.766219956567511,1.68147419393063,2.10520300758071,2.56656510592438,NaN,NaN,NaN,31,1.656009983,2.073946127
2,582,1212584.12739026,1212587.29476603,0.502363407285884,0,0,180,0,1,24,0.4,0.5,0.2,4115,0.130789552815259,NaN,0.774857349460945,1.09689124766737,1.52062006131746,2.02298346860334,NaN,NaN,NaN,30,1.071951015,1.490715766
2,668,1212587.29755312,1212591.15136547,0.706425096839666,1,0,180,180,0,36,0.1,0.5,0.2,2271,0.130007568746805,NaN,0.672380450181663,1.89271943317726,1.99441434838809,2.70083944522776,NaN,NaN,NaN,12,1.866470065,1.973307678
2,555,1212591.15415729,1212594.16673786,0.535808373941109,1,1,0,0,0,12,0.2,0.5,0.2,127,0.137812247499824,NaN,0.815778349293396,1.12086309492588,1.32425292558037,1.86006129952148,NaN,NaN,NaN,17,1.093484777,1.302673151
2,592,1212594.16955521,1212597.55447782,0.452596374321729,0,0,180,0,1,12,0.5,0.5,0.2,3403,0.123150424100459,NaN,0.8011165256612,1.24179449188523,1.78416737308726,2.23676374740899,NaN,NaN,NaN,38,1.223714192,1.756797574
2,896,1212597.5572826,1212601.57613481,0.690318694105372,0,1,180,180,0,36,0.5,0.5,0.2,3482,0.142238187137991,NaN,0.718509373720735,1.66766191599891,2.17462193989195,2.86494063399732,NaN,NaN,NaN,37,1.642992007,2.155435806
2,10,1212601.57883001,1212604.51105662,0.560403486015275,1,0,180,180,0,48,0.1,0.5,0.2,5684,0.136122575495392,NaN,0.831037829630077,1.10222427034751,1.21882466902025,1.77922815503553,NaN,NaN,NaN,12,1.070362896,1.186391505
2,752,1212604.51379478,1212608.29705364,0.718152861110866,1,1,180,0,1,36,0.3,0.5,0.2,6902,0.130695669911802,NaN,0.757814313983545,1.58832278847694,1.9103566869162,2.62850954802707,NaN,NaN,NaN,25,1.559476746,1.887906912
2,447,1212608.29985518,1212612.56790335,0.829621370183304,0,1,0,180,1,12,0.3,0.5,0.2,5013,0.124282364267856,NaN,0.768350160913542,1.98813671432436,2.29282599082217,3.12244736100547,NaN,NaN,NaN,24,1.968221021,2.271973092
2,221,1212612.57070965,1212616.42604133,0.854384963167831,0,1,0,180,1,24,0.4,0.5,0.2,1714,0.123719528550282,NaN,0.988126308191568,1.4288042744156,1.85323968785815,2.70762465102598,NaN,NaN,NaN,31,1.40084256,1.820793548
2,778,1212616.42978214,1212619.87752477,0.496599649311975,1,1,180,0,1,48,0.5,0.5,0.2,5354,0.129760787589476,NaN,0.756879431661218,1.28230316052213,1.80772688915022,2.30432653846219,NaN,NaN,NaN,38,1.249754506,1.781418399
2,139,1212619.88040271,1212624.36446803,0.671774986432865,1,1,0,0,0,36,0.2,0.5,0.2,187,0.13676435011439,NaN,1.54354401119053,2.45879824855365,2.6621880789753,3.33396306540817,NaN,NaN,NaN,17,2.431854996,2.634400969
2,709,1212624.36727313,1212627.68319674,0.51784206670709,1,0,0,180,1,0,0.5,0.5,0.2,2290,0.124440788757056,NaN,0.819356043124571,1.12444078875706,1.64927676972002,2.16711883642711,NaN,NaN,NaN,37,1.096182202,1.616973929
2,830,1212627.68602759,1212631.32297602,0.411876710597426,1,0,180,180,0,0,0.5,0.5,0.2,1901,0.127163369441405,NaN,0.805129471234977,1.56784133566543,2.07631591195241,2.48819262254983,NaN,NaN,NaN,35,1.545089899,2.049887825
2,537,1212631.32581267,1212634.658503,0.451726655475795,1,1,0,0,0,48,0.5,0.5,0.2,3855,0.13144511799328,NaN,0.826360372360796,1.216190880863,1.72466545714997,2.17639211262576,NaN,NaN,NaN,36,1.189232783,1.697778502
2,325,1212634.66132396,1212638.62689458,0.463527355575934,1,1,0,0,0,0,0.3,0.5,0.2,6321,0.134917085524648,NaN,0.829832339659333,2.05017132265493,2.35338648920879,2.81691384478472,NaN,NaN,NaN,24,2.022943562,2.332166026
2,198,1212638.62970491,1212642.52999338,0.52972924313508,1,0,180,180,0,24,0.2,0.5,0.2,5886,0.129911426687613,NaN,0.790928375907242,2.01126735890284,2.2146571893245,2.74438643245958,NaN,NaN,NaN,17,1.979197857,2.183530275
2,389,1212642.53281919,1212646.18706278,0.631794190732762,1,1,0,0,0,24,0.3,0.5,0.2,3975,0.125102929072455,NaN,0.786119878059253,1.54883174248971,1.86578483344056,2.49757902417332,NaN,NaN,NaN,23,1.529746894,1.83336005
2,759,1212646.18984551,1212649.88950397,0.91424463223666,1,0,0,180,1,12,0.4,0.5,0.2,4100,0.14096166449599,NaN,0.785029461141676,1.19180912221782,1.63018023897894,2.5444248712156,NaN,NaN,NaN,30,1.174068099,1.59579578
2,499,1212649.89229705,1212654.20960098,1.2073966297321,1,1,0,0,0,36,0.2,0.5,0.2,6272,0.131118980469182,NaN,0.859932539984584,1.74128847219981,1.96251332690008,3.16990995663218,NaN,NaN,NaN,18,1.723655411,1.930024934
2,76,1212654.21243188,1212658.12847852,0.601904421811923,1,0,180,180,0,12,0.2,0.5,0.2,2844,0.133904198184609,NaN,0.744073689682409,1.96441267267801,2.1678025033325,2.76970692514442,NaN,NaN,NaN,17,1.935437482,2.147242003
2,832,1212658.13126563,1212662.58285508,1.10169184440747,0,1,180,180,0,12,0.5,0.5,0.2,1317,0.129832329461351,NaN,0.824747583596036,1.67220521089621,2.19723628251813,3.2989281269256,NaN,NaN,NaN,35,1.652041213,2.164783645
2,540,1212662.58555845,1212665.82139591,0.47743005445227,0,1,180,180,0,60,0.5,0.5,0.2,355,0.132774861296639,NaN,0.742944352794439,1.09887655614875,1.60735113243572,2.08478118688799,NaN,NaN,NaN,35,1.075027805,1.580427375
2,552,1212665.82420484,1212669.54107538,0.672634520102292,1,0,180,180,0,60,0.1,0.5,0.2,5901,0.131415545009077,NaN,0.775483341654763,1.77613570098765,1.89350907295011,2.5661435930524,NaN,NaN,NaN,11,1.752222704,1.861422805
2,74,1212669.54384558,1212672.89309814,0.655100276926532,1,0,180,180,0,0,0.2,0.5,0.2,8199,0.123020194238052,NaN,0.800986296031624,1.32673943508416,1.54341885913163,2.19851913605817,NaN,NaN,NaN,17,1.305968736,1.510970384
2,490,1212672.89593265,1212677.46296292,1.32467520143837,0,1,180,180,0,48,0.1,0.5,0.2,9311,0.140485503012314,NaN,0.750654994510114,1.97099397773854,2.08963804552332,3.41431324696168,NaN,NaN,NaN,12,1.94829964,2.062136633
2,652,1212677.46578218,1212680.87036267,0.62229388137348,1,1,180,0,1,12,0.5,0.5,0.2,2876,0.129819168010727,NaN,0.807785269571468,1.11287001543678,1.6382937442977,2.26058762567118,NaN,NaN,NaN,37,1.09434322,1.613116643
2,127,1212680.87332391,1212684.27191657,1.05555736366659,1,1,0,0,0,36,0.1,0.5,0.2,1857,0.146591289434582,NaN,0.773709933506325,1.07879467913881,1.19743874692358,2.25299611059017,NaN,NaN,NaN,12,1.057390002,1.17403368
2,12,1212684.274701,1212688.04023289,0.781530874082819,0,1,180,180,0,60,0.1,0.5,0.2,2056,0.135100805200636,NaN,0.779168601846322,1.71137199155055,1.83001605933532,2.61154693341814,NaN,NaN,NaN,12,1.692594734,1.809138335
2,587,1212688.04294726,1212691.19650019,0.35726380511187,1,1,0,0,0,60,0.4,0.5,0.2,6341,0.13018740573898,NaN,0.994594185380265,1.23188232094981,1.63805099297315,1.99531479808502,NaN,NaN,NaN,30,1.205135269,1.610740583
2,622,1212691.19941165,1212694.64879825,0.719622843433172,1,0,180,180,0,48,0.2,0.5,0.2,6031,0.125654904171824,NaN,0.820570158306509,1.37989219231531,1.58328202273697,2.30290486617014,NaN,NaN,NaN,17,1.350970094,1.55670519
2,90,1212694.6516101,1212698.8020885,0.542539162328467,1,1,180,0,1,24,0.3,0.5,0.2,4837,0.130087005905807,NaN,0.926697175484151,2.13008700590581,2.45212090411223,2.9946600664407,NaN,NaN,NaN,25,2.098477904,2.424772145
2,394,1212698.80490128,1212702.17632517,0.569867949932814,1,1,180,0,1,48,0.3,0.5,0.2,2329,0.130036770366132,NaN,0.89274863479659,1.33342660078779,1.65546049922705,2.22532844915986,NaN,NaN,NaN,24,1.303508816,1.624036402
2,44,1212702.17917424,1212705.19237001,0.450955446111038,0,1,180,180,0,36,0.4,0.5,0.2,9809,0.128022261662409,NaN,0.772090058075264,1.00937819387764,1.41615785472095,1.86711330083199,NaN,NaN,NaN,30,0.979688154,1.385990139
2,630,1212705.19506452,1212708.27855948,0.530023786239326,1,0,180,180,0,24,0.3,0.5,0.2,8403,0.130108892219141,NaN,0.723329231142998,1.09621058707125,1.40129533293657,1.9313191191759,NaN,NaN,NaN,23,1.06631941,1.372586323
2,605,1212708.28136426,1212711.68445089,0.531582280062139,1,1,0,0,0,24,0.1,0.5,0.2,94,0.128554051974788,NaN,0.721774390898645,1.60313032311387,1.7212941176258,2.25287639768794,NaN,NaN,NaN,12,1.577684456,1.688882181
2,502,1212711.68729476,1212715.35014391,0.687182218069211,1,0,180,180,0,48,0.2,0.5,0.2,4514,0.145840250188485,NaN,0.874653809471056,1.60346736898646,1.82380635198206,2.51098857005127,NaN,NaN,NaN,19,1.585419857,1.80274133
2,370,1212715.35296145,1212719.38862592,1.16776935663074,0,1,180,180,0,48,0.1,0.5,0.2,8534,0.124272110871971,NaN,0.853085670154542,1.615797534585,1.71749244979583,2.88526180642657,NaN,NaN,NaN,12,1.585489164,1.68977748
2,17,1212719.39147897,1212722.64082292,0.6610899833031,0,0,0,0,0,24,0.2,0.5,0.2,320,0.136602299520746,NaN,0.814568401081488,1.23829721473157,1.44168704515323,2.10277702845633,NaN,NaN,NaN,17,1.213720432,1.420786312
2,369,1212722.64361713,1212726.03034663,0.689236145699397,1,1,0,0,0,48,0.1,0.5,0.2,9624,0.121753782732412,NaN,0.765821579378098,1.44378768093884,1.54548259614967,2.23471874184906,NaN,NaN,NaN,12,1.419911741,1.521747534
2,178,1212726.03314539,1212732.16780276,NaN,NaN,NaN,180,180,0,48,0.5,0.5,0.2,2368,0.122055743588135,NaN,NaN,NaN,NaN,NaN,NaN,NaN,NaN,1,NaN,NaN
2,204,1212732.17068045,1212738.30950868,NaN,NaN,NaN,180,180,0,60,0.2,0.5,0.2,5011,0.137063569622114,NaN,NaN,NaN,NaN,NaN,NaN,NaN,NaN,1,NaN,NaN
2,503,1212738.31237446,1212744.45983908,NaN,NaN,NaN,0,0,0,60,0.2,0.5,0.2,7061,0.130653944099322,NaN,NaN,NaN,NaN,NaN,NaN,NaN,NaN,1,NaN,NaN
2,170,1212744.46264516,1212750.60035469,NaN,NaN,NaN,180,180,0,0,0.5,0.5,0.2,740,0.132952235871926,NaN,NaN,NaN,NaN,NaN,NaN,NaN,NaN,1,NaN,NaN
2,415,1212750.60311515,1212756.74233854,NaN,NaN,NaN,0,0,0,36,0.5,0.5,0.2,2131,0.128077341243625,NaN,NaN,NaN,NaN,NaN,NaN,NaN,NaN,1,NaN,NaN
2,571,1212756.74593202,1212762.89376208,NaN,NaN,NaN,0,180,1,36,0.3,0.5,0.2,9475,0.137801881181076,NaN,NaN,NaN,NaN,NaN,NaN,NaN,NaN,1,NaN,NaN
2,853,1212762.8965294,1212769.05357211,NaN,NaN,NaN,0,0,0,0,0.2,0.5,0.2,931,0.139746650587767,NaN,NaN,NaN,NaN,NaN,NaN,NaN,NaN,1,NaN,NaN
2,727,1212769.05646273,1212775.19218041,NaN,NaN,NaN,0,0,0,36,0.1,0.5,0.2,3947,0.132356293965131,NaN,NaN,NaN,NaN,NaN,NaN,NaN,NaN,1,NaN,NaN
2,739,1212775.19513209,1212778.27647885,0.420361400814727,1,1,0,0,0,36,0.2,0.5,0.2,9531,0.129904263652861,NaN,0.96041273814626,1.29939578915946,1.50278561958112,1.92314702039585,NaN,NaN,NaN,17,1.274147429,1.480152451
2,103,1212778.279292,1212782.20113644,0.301797948544845,1,1,0,0,0,36,0.4,0.5,0.2,8162,0.1298991991207,NaN,0.824814453255385,2.04515343648382,2.4650802903343,2.76687823887914,NaN,NaN,NaN,29,2.020787399,2.432885638
2,382,1212782.20394703,1212785.33528431,0.556508414214477,0,1,180,180,0,48,0.2,0.5,0.2,8309,0.13364489749074,NaN,0.811610999284312,1.21839066012762,1.42178049078211,1.97828890499659,NaN,NaN,NaN,16,1.192769694,1.394022854
2,326,1212785.33809387,1212788.98769034,0.488408769946545,1,1,180,0,1,0,0.3,0.5,0.2,876,0.135092828888446,NaN,0.813058930682018,1.69441486289725,2.01185224461369,2.50026101456024,NaN,NaN,NaN,23,1.677443048,1.982503005
2,38,1212788.99049591,1212792.32740098,0.450951419072226,1,1,180,0,1,0,0.4,0.5,0.2,5124,0.139110213844106,NaN,0.783178010256961,1.30860173911788,1.73282215930521,2.18377357837744,NaN,NaN,NaN,31,1.290489674,1.713238918
2,230,1212792.33020895,1212796.61373329,0.622828503372148,1,1,180,0,1,0,0.5,0.5,0.2,9010,0.138850407209247,NaN,0.867663966491818,1.98630803427659,2.5093239468988,3.13215245027095,NaN,NaN,NaN,36,1.955421179,2.476800831
2,67,1212796.61649089,1212800.83412586,1.82169469259679,1,1,0,0,0,36,0.1,0.5,0.2,988,0.138316745404154,NaN,0.799333694390953,1.12136759283021,1.24001166061498,3.06170635321178,NaN,NaN,NaN,11,1.095210315,1.209495266
2,68,1212800.83683744,1212804.83635895,0.804928021971136,1,0,180,180,0,36,0.1,0.5,0.2,9430,0.138310275971889,NaN,0.799327224958688,1.91797129297629,2.03661536076106,2.8415433827322,NaN,NaN,NaN,11,1.895928756,2.009985235
2,126,1212804.83908693,1212807.79303951,0.476628124015406,1,0,180,180,0,24,0.1,0.5,0.2,7323,0.136059449752793,NaN,0.89877131418325,1.20385605981573,1.32250012760051,1.79912825161591,NaN,NaN,NaN,11,1.186558041,1.29397057
2,113,1212807.7958707,1212810.72592246,-0.113900194177404,1,0,0,180,1,24,0.5,0.5,0.2,6708,0.128424871712923,NaN,0.806390973506495,1.26401809207164,1.7884660481941,1.67456585401669,NaN,NaN,NaN,37,1.231885006,1.756673207
2,420,1212810.72864532,1212814.3784427,0.655004384927452,0,1,180,180,0,60,0.5,0.5,0.2,4520,0.126881665783003,NaN,0.872644377639517,1.33027149620466,1.83874607249163,2.49375045741908,NaN,NaN,NaN,35,1.306546336,1.809645524
2,631,1212814.38112417,1212817.81846279,0.579972720472142,1,1,0,0,0,36,0.3,0.5,0.2,5851,0.135420684237033,NaN,0.830335938604549,1.38965797238052,1.70902274851687,2.28899546898901,NaN,NaN,NaN,25,1.360490393,1.676750886
2,855,1212817.82128213,1212821.80343848,0.57313398970291,0,0,0,0,0,12,0.2,0.5,0.2,2943,0.133271421538666,NaN,0.828186675673351,2.03157650632784,2.25191548932344,2.82504947902635,NaN,NaN,NaN,17,2.014905685,2.223024228
2,674,1212821.80631572,1212825.35837458,0.734742928529158,1,0,180,180,0,0,0.2,0.5,0.2,2522,0.130645771278068,NaN,0.893357635708526,1.4526796694845,1.67320044967346,2.40794337820262,NaN,NaN,NaN,18,1.435516223,1.640957791
2,743,1212825.36116259,1212828.69215762,0.801600037375465,1,1,0,0,0,60,0.2,0.5,0.2,708,0.135336336214095,NaN,0.779404132859781,1.15228548878804,1.37154176202603,2.17314179940149,NaN,NaN,NaN,17,1.134272992,1.338911138
2,885,1212828.69501336,1212832.41337279,0.428240761160851,0,1,0,180,1,48,0.4,0.5,0.2,2127,0.139387131668627,NaN,0.851251538377255,1.69833427993581,2.13901224592701,2.56725300708786,NaN,NaN,NaN,32,1.678114869,2.108339375
2,449,1212832.4162755,1212835.70112421,0.546850625425577,1,1,0,0,0,24,0.3,0.5,0.2,6861,0.129613655852154,NaN,0.909274672623724,1.28215602855198,1.5872407744173,2.13409139984287,NaN,NaN,NaN,23,1.251655682,1.556343375
2,557,1212835.7038845,1212839.08512071,0.581827654503286,1,1,0,0,0,24,0.2,0.5,0.2,7531,0.130140004679561,NaN,0.808106106473133,1.43522475054488,1.65648749098182,2.2383151454851,NaN,NaN,NaN,19,1.408768613,1.62169488
2,483,1212839.0877578,1212843.04162799,0.678545646136627,1,1,0,0,0,12,0.1,0.5,0.2,7514,0.137021226808429,NaN,0.798038176028058,2.01837715902366,2.12007207423449,2.79861772037111,NaN,NaN,NaN,12,1.988202507,2.090933094
2,486,1212843.0442761,1212846.96081133,0.750820477958769,1,0,180,180,0,24,0.1,0.5,0.2,4034,0.129655287135392,NaN,0.67202816833742,1.89236715133302,2.01101121911779,2.76183169707656,NaN,NaN,NaN,13,1.871785312,1.98766581
2,867,1212846.96344897,1212850.34829452,0.701754251262173,1,1,0,0,0,12,0.3,0.5,0.2,149,0.125736893387511,NaN,0.786753842607141,1.21105030691251,1.53308420511894,2.23483845638111,NaN,NaN,NaN,24,1.19001139,1.504689662
2,456,1212850.35101374,1212853.74878116,0.710809669923037,1,1,180,0,1,60,0.3,0.5,0.2,3288,0.128993370570242,NaN,0.756112014641985,1.21343858772889,1.53651935816742,2.24732902809046,NaN,NaN,NaN,24,1.187839817,1.504582647
2,84,1212853.75142978,1212857.08957149,0.810887712053955,0,1,180,180,0,60,0.2,0.5,0.2,689,0.136105108773336,NaN,0.678477989975363,1.17048744834028,1.38781961426139,2.19870732631534,NaN,NaN,NaN,17,1.148364605,1.355421436
2,176,1212857.09226587,1212860.95774286,0.607298657298088,0,1,180,180,0,36,0.5,0.5,0.2,2544,0.131676521152258,NaN,0.741846012650058,1.60625279229134,2.11472736857831,2.7220260258764,NaN,NaN,NaN,36,1.575776078,2.084518165
2,461,1212860.96036595,1212864.32543184,0.73806859832257,1,1,0,0,0,24,0.4,0.5,0.2,9232,0.127985233673826,NaN,0.772053030319512,1.07713777618483,1.48391743702814,2.22198603535071,NaN,NaN,NaN,30,1.047654337,1.452532822
2,171,1212864.32816513,1212867.79898589,0.763429851038381,1,1,0,0,0,12,0.5,0.5,0.2,3841,0.133099891245365,NaN,0.743269382743165,1.03108891216107,1.55456441221759,2.31799426325597,NaN,NaN,NaN,36,1.010116692,1.520750701
2,474,1212867.80163247,1212871.40242629,0.650663864798844,0,0,180,0,1,24,0.5,0.5,0.2,6241,0.131961289793253,NaN,0.742130781291053,1.28450366272591,1.80992739135399,2.46059125615284,NaN,NaN,NaN,37,1.26573067,1.783744416
2,37,1212871.40505541,1212874.80471073,0.609988522017375,0,0,0,0,0,0,0.4,0.5,0.2,6048,0.121757461456582,NaN,0.782774410676211,1.22345237666741,1.6471811903175,2.25716971233487,NaN,NaN,NaN,31,1.201535207,1.616601256
2,100,1212874.80734939,1212878.65627934,0.56868782825768,0,1,180,180,0,12,0.4,0.5,0.2,9872,0.126243037637323,NaN,0.770310834283009,1.70251422398724,2.12624303763732,2.694930865895,NaN,NaN,NaN,29,1.685627663,2.100718645
2,619,1212878.65908571,1212882.21328629,1.09489306481555,1,1,0,0,0,36,0.2,0.5,0.2,1988,0.138914763461798,NaN,0.766033407533541,1.10501645831391,1.3084062889684,2.40329935378395,NaN,NaN,NaN,18,1.07436367,1.284926478
2,689,1212882.21609478,1212885.46449656,0.514398654922843,0,0,0,0,0,24,0.3,0.5,0.2,4895,0.124278143513948,NaN,0.649701872142032,1.25902716256678,1.5798689306248,2.09426758554764,NaN,NaN,NaN,24,1.231464077,1.547735506
2,496,1212885.46719516,1212888.83164564,0.662804287392646,0,1,180,180,0,12,0.2,0.5,0.2,8713,0.125354427378625,NaN,0.701625613961369,1.32874425803311,1.5482604498975,2.21106473729014,NaN,NaN,NaN,17,1.299978962,1.515980242
2,670,1212888.83431079,1212892.3560463,0.597663252381608,0,1,180,180,0,48,0.1,0.5,0.2,4447,0.130189978750423,NaN,0.706461165100336,1.65561370761134,1.77425777539611,2.37192102777772,NaN,NaN,NaN,11,1.637835662,1.751613924
2,445,1212892.35875103,1212895.82401437,0.92709436872974,0,0,0,0,0,0,0.3,0.5,0.2,3313,0.130216191522777,NaN,0.740385683020577,1.062419581227,1.38445347966626,2.311547848396,NaN,NaN,NaN,24,1.04529649,1.363161503
2,323,1212895.82665391,1212899.69399279,0.603518794057891,1,1,0,0,0,60,0.2,0.5,0.2,6751,0.137001518392935,NaN,0.730221857316792,1.91666253539734,2.12005236581899,2.72357115987688,NaN,NaN,NaN,18,1.891201787,2.098811517
2,794,1212899.69676242,1212902.86683355,0.779529720311984,1,0,180,180,0,0,0.2,0.5,0.2,1462,0.131298796506599,NaN,0.775366593152285,1.01293476391584,1.23389533767477,2.01342505798675,NaN,NaN,NaN,17,0.981304371,1.197685268
2,173,1212902.86965037,1212905.8672498,0.421908645890653,1,1,0,0,0,24,0.5,0.5,0.2,4837,0.128806295571849,NaN,0.552535108989105,0.908587243407965,1.42662501661107,1.84853366250172,NaN,NaN,NaN,35,0.879970112,1.394526432
2,316,1212905.86991305,1212909.102708,0.950311733642593,0,1,180,180,0,12,0.2,0.5,0.2,9875,0.121250487631187,NaN,0.680572521639988,0.934809809783474,1.13819964020513,2.08851137384772,NaN,NaN,NaN,17,0.912053377,1.113208109
2,485,1212909.10548643,1212911.99087068,0.695117770228535,1,1,0,0,0,24,0.1,0.5,0.2,1977,0.139347085962072,NaN,0.681719967164099,0.935957255307585,1.03765217075124,1.73276994097978,NaN,NaN,NaN,11,0.904277891,1.013402928
2,154,1212911.9935619,1212915.76052406,0.538507602876052,0,1,180,180,0,48,0.3,0.5,0.2,633,0.132611213251948,NaN,0.556340026669204,1.77666331152432,2.08223006664775,2.62073766952381,NaN,NaN,NaN,23,1.754571652,2.062001888
2,505,1212915.7632988,1212919.14440766,0.532658690586686,1,1,0,0,0,0,0.3,0.5,0.2,663,0.126067894743755,NaN,0.753186538815498,1.38030518288724,1.7023390813265,2.23499777191319,NaN,NaN,NaN,25,1.361162293,1.678250688
2,41,1212919.14711466,1212922.53433328,0.483967590611428,1,1,0,0,0,24,0.4,0.5,0.2,9310,0.132037589559332,NaN,0.759156233631074,1.33542742021382,1.75915623363107,2.2431238242425,NaN,NaN,NaN,30,1.318579,1.730750179
2,643,1212922.53721975,1212926.43745329,0.604321572463959,0,1,0,180,1,36,0.4,0.5,0.2,4050,0.131808381993324,NaN,0.77587617863901,1.70893671503291,2.1446672740858,2.74898884654976,NaN,NaN,NaN,30,1.68329035,2.1101958
2,199,1212926.44026211,1212930.10630814,0.641360443318263,1,1,0,0,0,36,0.2,0.5,0.2,8431,0.12297916947864,NaN,0.90264018648304,1.66535205068067,1.86874188133515,2.51010232465342,NaN,NaN,NaN,17,1.634682666,1.843576284
2,302,1212930.10898655,1212933.49586645,0.685240795603022,0,1,180,180,0,0,0.1,0.5,0.2,3989,0.132223463850096,NaN,0.827138718217611,1.43730820971541,1.55595227750018,2.2411930731032,NaN,NaN,NaN,12,1.41421384,1.527650292
2,876,1212933.49866973,1212937.01515481,0.636786184972152,0,1,180,180,0,60,0.3,0.5,0.2,3651,0.132350469939411,NaN,0.79336741915904,1.40353691065684,1.72686340357177,2.36364958854392,NaN,NaN,NaN,24,1.379954193,1.690842912
2,464,1212937.0177959,1212941.40166298,0.91913947253488,1,0,180,180,0,36,0.4,0.5,0.2,3033,0.123033184092492,NaN,0.970490811159834,1.88574504852295,2.30937424651347,3.22851371904835,NaN,NaN,NaN,30,1.865041893,2.275108043
2,287,1212941.40434642,1212944.78625242,0.489546450087801,0,1,0,180,1,60,0.4,0.5,0.2,8322,0.126238195225596,NaN,0.838102601934224,1.31267887307331,1.7364076867234,2.2259541368112,NaN,NaN,NaN,31,1.283542438,1.708324838
2,454,1212944.78895877,1212948.17709526,0.669244810007513,0,1,180,180,0,48,0.3,0.5,0.2,356,0.131460656644776,NaN,0.928070825990289,1.25010472442955,1.57213862263598,2.24138343264349,NaN,NaN,NaN,24,1.228308272,1.543266588
2,561,1212948.17975044,1212951.27876903,0.637760115554556,1,1,0,0,0,48,0.2,0.5,0.2,1098,0.130382625153288,NaN,0.80834872671403,1.11343347257935,1.316823303001,1.95458341855556,NaN,NaN,NaN,17,1.084047674,1.288361438
2,97,1212951.28146944,1212954.74636361,0.536857293220237,1,0,0,180,1,0,0.4,0.5,0.2,7896,0.130787378409877,NaN,0.707058564759791,1.33340489072725,1.77193197165616,2.3087892648764,NaN,NaN,NaN,32,1.312959783,1.73953895
2,790,1212954.74905073,1212958.63673526,0.67004916886799,1,0,180,180,0,48,0.1,0.5,0.2,3827,0.134857709985226,NaN,0.728078048909083,1.94893673248589,2.06726042903028,2.73730959789827,NaN,NaN,NaN,13,1.926775222,2.041668401
2,61,1212958.63957352,1212961.75342277,0.714177082292736,1,1,0,0,0,0,0.1,0.5,0.2,7167,0.125891741132364,NaN,0.753010385204107,1.14283765107393,1.24453256628476,1.9587096485775,NaN,NaN,NaN,11,1.120052438,1.220931551
2,138,1212961.75619039,1212964.87264645,0.715594023000449,1,0,180,180,0,24,0.2,0.5,0.2,591,0.127871632110327,NaN,0.721091971034184,1.04312586947344,1.2465156998951,1.96210972289555,NaN,NaN,NaN,17,1.020543927,1.222895331
2,86,1212964.8753548,1212968.09706877,0.608493988169357,1,1,180,0,1,0,0.3,0.5,0.2,7216,0.127395685529336,NaN,0.70366687187925,1.16129399067722,1.46637873630971,2.07487272447906,NaN,NaN,NaN,23,1.135858462,1.441547182
2,172,1212968.09988912,1212971.39752899,0.573558788513765,1,1,180,0,1,12,0.5,0.5,0.2,665,0.140145811950788,NaN,0.699467845959589,1.0554000493139,1.58082377817482,2.15438256668858,NaN,NaN,NaN,37,1.024527146,1.55140196
2,371,1212971.4003118,1212974.43114745,0.707209498621523,1,1,0,0,0,60,0.1,0.5,0.2,6720,0.127862019464374,NaN,0.636336595751345,1.0600654091686,1.17870947695337,1.8859189755749,NaN,NaN,NaN,12,1.039740036,1.153729149
2,882,1212974.43393273,1212977.58706683,0.638907230226323,1,1,180,0,1,24,0.4,0.5,0.2,7775,0.145087393932045,NaN,0.636612817877904,0.941697563510388,1.36542637716047,2.0043336073868,NaN,NaN,NaN,30,0.920905869,1.339129326
2,425,1212977.58970075,1212980.5200638,0.634831516537815,1,1,0,0,0,24,0.1,0.5,0.2,118,0.124913441948593,NaN,0.684235475957394,1.02321852673776,1.14186259452254,1.77669411106035,NaN,NaN,NaN,12,1.003225885,1.119623349
2,827,1212980.52287587,1212984.01161105,0.537475477671251,0,1,0,180,1,60,0.4,0.5,0.2,6735,0.123940957244486,NaN,0.734110448742285,1.37817824538797,1.80190705903806,2.33938253670931,NaN,NaN,NaN,32,1.348406504,1.772302984
2,87,1212984.01443306,1212987.41355238,0.666381594026461,1,1,0,0,0,12,0.3,0.5,0.2,8060,0.123910186812282,NaN,0.801876288605854,1.27645255974494,1.58153730537742,2.24791889940389,NaN,NaN,NaN,24,1.245988687,1.549769349
2,244,1212987.41624758,1212990.46270643,0.765292373020202,0,1,180,180,0,12,0.1,0.5,0.2,9560,0.128822749480605,NaN,0.569500715471804,1.02712783403695,1.12882274948061,1.89411512250081,NaN,NaN,NaN,11,0.994395639,1.10070834
2,657,1212990.46550938,1212994.21593469,0.541974926833063,0,1,0,180,1,48,0.5,0.5,0.2,164,0.13069584639743,NaN,0.605272117536515,1.53747550747357,2.06289923610166,2.60487416293472,NaN,NaN,NaN,37,1.516513492,2.038096028
2,732,1212994.21880302,1212997.57300026,0.800174952950329,0,1,180,180,0,60,0.1,0.5,0.2,9525,0.123135811649263,NaN,0.699406997999176,1.30957648949698,1.41127140494063,2.21144635789096,NaN,NaN,NaN,12,1.27849594,1.387100794
2,850,1212997.5757893,1213000.67567917,0.717673403210938,0,1,180,180,0,48,0.1,0.5,0.2,7467,0.139061286346987,NaN,0.749230777844787,1.12211213377304,1.24075620155782,1.95842960476875,NaN,NaN,NaN,12,1.100122413,1.216100088
2,838,1213000.6783442,1213004.30976627,0.488432787591591,1,1,180,0,1,48,0.5,0.5,0.2,7938,0.121251609409228,NaN,0.748370253480971,1.47718381276354,1.99944556318223,2.48787835077383,NaN,NaN,NaN,36,1.44665387,1.966870584
2,77,1213004.31256777,1213007.54847049,0.897982155205682,1,1,0,0,0,24,0.2,0.5,0.2,3542,0.127934907563031,NaN,0.73810439906083,0.992341687204316,1.19573151762597,2.09371367283165,NaN,NaN,NaN,18,0.96058571,1.168262435
2,672,1213007.55113319,1213010.90110392,0.725609137443826,0,1,180,180,0,60,0.1,0.5,0.2,9913,0.126657428219914,NaN,0.787674377439544,1.36338450107723,1.48160271113738,2.20721184858121,NaN,NaN,NaN,12,1.343130718,1.449469101
2,870,1213010.90376079,1213014.50239613,0.604315049480647,0,0,180,0,1,24,0.3,0.5,0.2,6039,0.130355305736884,NaN,0.723575644660741,1.50323666166514,1.84221971244551,2.44653476192616,NaN,NaN,NaN,24,1.48391701,1.816566473
2,594,1213014.50505723,1213017.99242081,0.507349896477535,0,1,180,180,0,24,0.5,0.5,0.2,7658,0.139283230528235,NaN,0.715554416878149,1.32572390860878,1.83396885520779,2.34131875168532,NaN,NaN,NaN,35,1.294924939,1.801438884
2,424,1213017.99506217,1213021.99590113,0.821406641742215,0,1,180,180,0,12,0.1,0.5,0.2,5241,0.123575040139258,NaN,0.767642836552113,1.92018520948477,2.0218801246956,2.84328676643781,NaN,NaN,NaN,11,1.895307765,1.997835249
2,268,1213021.99855954,1213025.63140689,0.758354543941095,0,1,180,180,0,12,0.3,0.5,0.2,1121,0.120091883931309,NaN,0.628566460218281,1.40822747698985,1.72934157494456,2.48769611888565,NaN,NaN,NaN,24,1.39097034,1.697491997
2,322,1213025.6341169,1213029.30522108,1.17731657018885,1,0,180,180,0,48,0.2,0.5,0.2,3167,0.127718695206568,NaN,0.703989881556481,1.12771869520657,1.34681982616894,2.52413639635779,NaN,NaN,NaN,17,1.110242445,1.314422528
2,245,1213029.30804582,1213032.08942062,0.725487360497937,1,1,0,0,0,24,0.1,0.5,0.2,3335,0.129908793373033,NaN,0.536688454449177,0.790925742592663,0.908795969560742,1.63428333005868,NaN,NaN,NaN,11,0.775358274,0.876722347
2,155,1213032.09208595,1213035.19026083,0.559823743999004,0,1,0,180,1,60,0.3,0.5,0.2,7689,0.124767135363072,NaN,0.734936626860872,1.0569705250673,1.39442142634653,1.95424517034553,NaN,NaN,NaN,24,1.040003018,1.361968326
2,288,1213035.19306079,1213038.63025784,0.446574067696929,1,1,180,0,1,60,0.4,0.5,0.2,846,0.140453824074939,NaN,0.598080942640081,1.41164026479237,1.84668413829058,2.29325820598751,NaN,NaN,NaN,30,1.393656222,1.814229904
2,522,1213038.63314087,1213041.81449028,0.494108623126522,0,1,180,180,0,24,0.4,0.5,0.2,215,0.13541801366955,NaN,0.762536657741293,1.11846886109561,1.54312400566414,2.03723262879066,NaN,NaN,NaN,29,1.097145813,1.511516518
2,3,1213041.81727327,1213044.81529183,0.723262339364737,0,0,0,0,0,12,0.1,0.5,0.2,2361,0.138653597328812,NaN,0.647128173615783,1.02000952954404,1.12170444475487,1.84496678411961,NaN,NaN,NaN,11,0.990886081,1.094623331
2,374,1213044.81797058,1213047.82096812,0.569860574789345,0,1,180,180,0,0,0.2,0.5,0.2,7554,0.137956107500941,NaN,0.57863407349214,1.07015949720517,1.29049848020077,1.86035905499011,NaN,NaN,NaN,17,1.050390137,1.262834303
2,214,1213047.82383487,1213051.49059366,0.55913301743567,1,1,180,0,1,48,0.3,0.5,0.2,9992,0.132092374376953,NaN,0.742261865874752,1.62361779808998,1.95925235655159,2.51838537398726,NaN,NaN,NaN,24,1.600220256,1.927000841
2,181,1213051.49339043,1213055.27506779,0.691234985832125,1,1,0,0,0,0,0.1,0.5,0.2,6568,0.137153176823631,NaN,0.611729447962716,1.8151192786172,1.93376334640197,2.6249983322341,NaN,NaN,NaN,12,1.798581222,1.910498995
2,80,1213055.27773206,1213058.4988311,0.779638856183738,0,1,180,180,0,36,0.2,0.5,0.2,933,0.132472732570022,NaN,0.573150698561221,1.08162527484819,1.28501510550268,2.06465396168642,NaN,NaN,NaN,17,1.057585287,1.261776477
2,858,1213058.50163169,1213061.46579159,0.721589064458385,0,1,180,180,0,24,0.2,0.5,0.2,3082,0.128912701038644,NaN,0.654336429899558,0.891624565469101,1.09501439589076,1.81660346034914,NaN,NaN,NaN,18,0.86274047,1.073908845
2,525,1213061.46848304,1213065.46936824,0.748499262612313,0,0,0,0,0,48,0.4,0.5,0.2,971,0.128163525601849,NaN,0.721383864758536,1.70443471218459,2.10919342259876,2.85769268521108,NaN,NaN,NaN,30,1.67313109,2.076212497
2,124,1213065.47218425,1213068.59219923,0.674644899088889,1,0,180,180,0,12,0.1,0.5,0.2,3496,0.122439293423668,NaN,0.800405394984409,1.17328675091267,1.29151469795033,1.96615959703922,NaN,NaN,NaN,11,1.151243134,1.259072482
2,756,1213068.59484229,1213071.74422967,0.749819116666913,0,1,180,180,0,60,0.3,0.5,0.2,8979,0.13493374385871,NaN,0.52476425236091,0.948493066010997,1.25357781164348,2.00339692831039,NaN,NaN,NaN,23,0.917006768,1.222593576
2,598,1213071.74702784,1213074.94467971,0.445993549656123,1,1,180,0,1,48,0.5,0.5,0.2,4129,0.135316385189071,NaN,0.728536724112928,1.0675197748933,1.60528891836293,2.05128246801905,NaN,NaN,NaN,38,1.039649363,1.573183379
2,681,1213074.94747154,1213078.63330738,0.702301103388891,1,1,0,0,0,48,0.2,0.5,0.2,3851,0.133612943813205,NaN,0.760731587884948,1.62513836752623,1.82852819794789,2.53082930133678,NaN,NaN,NaN,18,1.596952963,1.808912661
2,750,1213078.63602544,1213081.63537947,0.587065078318119,0,0,180,0,1,24,0.3,0.5,0.2,7800,0.122994656441733,NaN,0.66536753764376,0.919604825787246,1.25517631135881,1.84224138967693,NaN,NaN,NaN,24,0.900690526,1.22293066
2,746,1213081.63819078,1213085.03706207,0.57539370842278,0,1,180,180,0,0,0.3,0.5,0.2,1329,0.134442546404898,NaN,0.693764580180869,1.3547815294005,1.67264200304635,2.24803571146913,NaN,NaN,NaN,24,1.338508483,1.640169904
2,849,1213085.03973507,1213088.30864036,0.966010433854535,0,0,0,0,0,48,0.1,0.5,0.2,1267,0.135474406881258,NaN,0.745643898379058,1.05072864424437,1.1524235594552,2.11843399330974,NaN,NaN,NaN,11,1.02074645,1.124302485
2,868,1213088.31144124,1213091.11113212,0.655506708659232,0,1,180,180,0,12,0.3,0.5,0.2,5609,0.134927238803357,NaN,0.440011984435841,0.694249272579327,0.999334018444642,1.65484072710387,NaN,NaN,NaN,23,0.665623423,0.971947829
2,857,1213091.11379465,1213094.31672303,0.635085006942973,0,0,0,0,0,24,0.2,0.5,0.2,3155,0.129305873764679,NaN,0.553034687181935,1.19763550185598,1.41744899982587,2.05253400676884,NaN,NaN,NaN,19,1.176683266,1.389024227
2,500,1213094.31942345,1213097.66729657,0.48916434799321,0,1,180,180,0,36,0.2,0.5,0.2,8669,0.127106255386025,NaN,0.703377441968769,1.48303845874034,1.70170727046207,2.19087161845528,NaN,NaN,NaN,17,1.461867717,1.669304514
2,663,1213097.67010036,1213101.61951624,0.76317434059456,1,1,0,0,0,12,0.1,0.5,0.2,4401,0.130709159420803,NaN,0.706980345770717,1.92731932899915,2.0290958059486,2.79227014654316,NaN,NaN,NaN,12,1.901890511,2.005138914
2,30,1213101.62219049,1213104.84439313,0.67313239001669,0,1,180,180,0,24,0.3,0.5,0.2,8255,0.127809927333146,NaN,0.636284503620118,1.09391162218526,1.39899636805058,2.07212875806727,NaN,NaN,NaN,23,1.065643661,1.367752248
2,42,1213104.84721653,1213108.8963227,0.635377329774201,1,1,180,0,1,24,0.4,0.5,0.2,9772,0.140056767966598,NaN,0.631582191679627,1.85192117490806,2.27564998832531,2.91102731809951,NaN,NaN,NaN,32,1.820917185,2.250812468
2,334,1213108.89896848,1213112.23217606,0.768900455674157,1,1,180,0,1,48,0.3,0.5,0.2,9364,0.122260788688436,NaN,0.715481127612293,1.08836248354055,1.41039638197981,2.17929683765396,NaN,NaN,NaN,24,1.062240228,1.385102411
2,304,1213112.23482526,1213115.56794417,0.773931965464726,1,0,180,180,0,12,0.1,0.5,0.2,982,0.125387619249523,NaN,0.752506263321266,1.31182829733007,1.41352321254089,2.18745517800562,NaN,NaN,NaN,11,1.283623237,1.385146782
2,151,1213115.570629,1213118.92313284,0.718252422753721,0,0,0,0,0,36,0.3,0.5,0.2,379,0.128580009331927,NaN,0.772647805744782,1.16247831424698,1.48535952949896,2.20361195225269,NaN,NaN,NaN,24,1.134937699,1.452406348
2,503,1213118.92583708,1213122.72587513,0.543208148097619,1,1,0,0,0,60,0.2,0.5,0.2,5831,0.130249409936368,NaN,0.757368054008111,1.89296127436683,2.11330025736243,2.65650840546004,NaN,NaN,NaN,18,1.872927044,2.083579468
2,148,1213122.72857705,1213126.02755203,0.567173493327573,1,0,180,180,0,12,0.3,0.5,0.2,5378,0.124119378160685,NaN,0.768187174573541,1.25971259828657,1.58248573588207,2.14965922920965,NaN,NaN,NaN,25,1.240203619,1.550465695
2,118,1213126.03028401,1213130.23072853,0.563913602614775,1,1,180,0,1,48,0.5,0.5,0.2,6322,0.128235534531996,NaN,0.738405026029795,1.94179485668428,2.48417616193183,3.0480897645466,NaN,NaN,NaN,36,1.925722968,2.451717895
